participant_id,random_id,condition,trial_index,trial_number,time_elapsed,stimulus,object_id,stimulus_type,response,correct_response,correct_response_key,correct,is_right,rt,participant_thoughts,participant_difficulties
gorilla,p01pepaop6w,bigger,7,1,31142,stimuli/5-Inongruent.jpg,5,incongruent,m,right,m,TRUE,1,2643,To test whether real-world knowledge of which object is bigger affects participant speed/ accuracy of determining which image is bigger (may or may not correspond to real world proportions),No
gorilla,p01pepaop6w,bigger,10,2,34000,stimuli/30-Congruent.jpg,30,congruent,z,left,z,TRUE,1,947,To test whether real-world knowledge of which object is bigger affects participant speed/ accuracy of determining which image is bigger (may or may not correspond to real world proportions),No
gorilla,p01pepaop6w,bigger,13,3,36848,stimuli/30-Congruent.jpg,30,congruent,z,left,z,TRUE,1,939,To test whether real-world knowledge of which object is bigger affects participant speed/ accuracy of determining which image is bigger (may or may not correspond to real world proportions),No
gorilla,p01pepaop6w,bigger,16,4,39556,stimuli/34-Inongruent.jpg,34,incongruent,m,right,m,TRUE,1,790,To test whether real-world knowledge of which object is bigger affects participant speed/ accuracy of determining which image is bigger (may or may not correspond to real world proportions),No
gorilla,p01pepaop6w,bigger,19,5,42054,stimuli/24-Inongruent.jpg,24,incongruent,m,right,m,TRUE,1,575,To test whether real-world knowledge of which object is bigger affects participant speed/ accuracy of determining which image is bigger (may or may not correspond to real world proportions),No
gorilla,p01pepaop6w,bigger,22,6,44461,stimuli/14-Congruent.jpg,14,congruent,z,left,z,TRUE,1,489,To test whether real-world knowledge of which object is bigger affects participant speed/ accuracy of determining which image is bigger (may or may not correspond to real world proportions),No
gorilla,p01pepaop6w,bigger,25,7,46888,stimuli/14-Inongruent.jpg,14,incongruent,m,right,m,TRUE,1,512,To test whether real-world knowledge of which object is bigger affects participant speed/ accuracy of determining which image is bigger (may or may not correspond to real world proportions),No
gorilla,p01pepaop6w,bigger,28,8,49197,stimuli/28-Inongruent.jpg,28,incongruent,m,right,m,TRUE,1,395,To test whether real-world knowledge of which object is bigger affects participant speed/ accuracy of determining which image is bigger (may or may not correspond to real world proportions),No
gorilla,p01pepaop6w,bigger,31,9,51464,stimuli/20-Congruent.jpg,20,congruent,z,left,z,TRUE,1,333,To test whether real-world knowledge of which object is bigger affects participant speed/ accuracy of determining which image is bigger (may or may not correspond to real world proportions),No
gorilla,p01pepaop6w,bigger,34,10,53776,stimuli/25-Congruent.jpg,25,congruent,z,left,z,TRUE,1,401,To test whether real-world knowledge of which object is bigger affects participant speed/ accuracy of determining which image is bigger (may or may not correspond to real world proportions),No
gorilla,p01pepaop6w,bigger,37,11,56051,stimuli/27-Congruent.jpg,27,congruent,z,left,z,TRUE,1,363,To test whether real-world knowledge of which object is bigger affects participant speed/ accuracy of determining which image is bigger (may or may not correspond to real world proportions),No
gorilla,p01pepaop6w,bigger,40,12,58360,stimuli/18-Inongruent.jpg,18,incongruent,m,right,m,TRUE,1,383,To test whether real-world knowledge of which object is bigger affects participant speed/ accuracy of determining which image is bigger (may or may not correspond to real world proportions),No
gorilla,p01pepaop6w,bigger,43,13,60729,stimuli/13-Inongruent.jpg,13,incongruent,m,right,m,TRUE,1,455,To test whether real-world knowledge of which object is bigger affects participant speed/ accuracy of determining which image is bigger (may or may not correspond to real world proportions),No
gorilla,p01pepaop6w,bigger,46,14,62960,stimuli/23-Congruent.jpg,23,congruent,z,left,z,TRUE,1,305,To test whether real-world knowledge of which object is bigger affects participant speed/ accuracy of determining which image is bigger (may or may not correspond to real world proportions),No
gorilla,p01pepaop6w,bigger,49,15,65236,stimuli/34-Inongruent.jpg,34,incongruent,m,right,m,TRUE,1,359,To test whether real-world knowledge of which object is bigger affects participant speed/ accuracy of determining which image is bigger (may or may not correspond to real world proportions),No
gorilla,p01pepaop6w,bigger,52,16,67513,stimuli/9-Inongruent.jpg,9,incongruent,m,right,m,TRUE,1,355,To test whether real-world knowledge of which object is bigger affects participant speed/ accuracy of determining which image is bigger (may or may not correspond to real world proportions),No
gorilla,p01pepaop6w,bigger,55,17,69803,stimuli/13-Congruent.jpg,13,congruent,z,left,z,TRUE,1,377,To test whether real-world knowledge of which object is bigger affects participant speed/ accuracy of determining which image is bigger (may or may not correspond to real world proportions),No
gorilla,p01pepaop6w,bigger,58,18,72063,stimuli/6-Inongruent.jpg,6,incongruent,m,right,m,TRUE,1,342,To test whether real-world knowledge of which object is bigger affects participant speed/ accuracy of determining which image is bigger (may or may not correspond to real world proportions),No
gorilla,p01pepaop6w,bigger,61,19,74387,stimuli/20-Inongruent.jpg,20,incongruent,m,right,m,TRUE,1,394,To test whether real-world knowledge of which object is bigger affects participant speed/ accuracy of determining which image is bigger (may or may not correspond to real world proportions),No
gorilla,p01pepaop6w,bigger,64,20,76701,stimuli/2-Congruent.jpg,2,congruent,z,left,z,TRUE,1,398,To test whether real-world knowledge of which object is bigger affects participant speed/ accuracy of determining which image is bigger (may or may not correspond to real world proportions),No
gorilla,p01pepaop6w,bigger,67,21,78981,stimuli/29-Inongruent.jpg,29,incongruent,m,right,m,TRUE,1,355,To test whether real-world knowledge of which object is bigger affects participant speed/ accuracy of determining which image is bigger (may or may not correspond to real world proportions),No
gorilla,p01pepaop6w,bigger,70,22,81312,stimuli/34-Congruent.jpg,34,congruent,z,left,z,TRUE,1,421,To test whether real-world knowledge of which object is bigger affects participant speed/ accuracy of determining which image is bigger (may or may not correspond to real world proportions),No
gorilla,p01pepaop6w,bigger,73,23,83683,stimuli/1-Congruent.jpg,1,congruent,z,left,z,TRUE,1,459,To test whether real-world knowledge of which object is bigger affects participant speed/ accuracy of determining which image is bigger (may or may not correspond to real world proportions),No
gorilla,p01pepaop6w,bigger,76,24,85981,stimuli/36-Inongruent.jpg,36,incongruent,m,right,m,TRUE,1,379,To test whether real-world knowledge of which object is bigger affects participant speed/ accuracy of determining which image is bigger (may or may not correspond to real world proportions),No
gorilla,p01pepaop6w,bigger,79,25,88316,stimuli/13-Congruent.jpg,13,congruent,z,left,z,TRUE,1,418,To test whether real-world knowledge of which object is bigger affects participant speed/ accuracy of determining which image is bigger (may or may not correspond to real world proportions),No
gorilla,p01pepaop6w,bigger,82,26,90536,stimuli/32-Inongruent.jpg,32,incongruent,m,right,m,TRUE,1,304,To test whether real-world knowledge of which object is bigger affects participant speed/ accuracy of determining which image is bigger (may or may not correspond to real world proportions),No
gorilla,p01pepaop6w,bigger,85,27,92830,stimuli/4-Inongruent.jpg,4,incongruent,m,right,m,TRUE,1,361,To test whether real-world knowledge of which object is bigger affects participant speed/ accuracy of determining which image is bigger (may or may not correspond to real world proportions),No
gorilla,p01pepaop6w,bigger,88,28,95154,stimuli/21-Congruent.jpg,21,congruent,z,left,z,TRUE,1,396,To test whether real-world knowledge of which object is bigger affects participant speed/ accuracy of determining which image is bigger (may or may not correspond to real world proportions),No
gorilla,p01pepaop6w,bigger,91,29,97371,stimuli/22-Inongruent.jpg,22,incongruent,m,right,m,TRUE,1,295,To test whether real-world knowledge of which object is bigger affects participant speed/ accuracy of determining which image is bigger (may or may not correspond to real world proportions),No
gorilla,p01pepaop6w,bigger,94,30,99639,stimuli/23-Congruent.jpg,23,congruent,z,left,z,TRUE,1,331,To test whether real-world knowledge of which object is bigger affects participant speed/ accuracy of determining which image is bigger (may or may not correspond to real world proportions),No
gorilla,p01pepaop6w,bigger,97,31,101988,stimuli/33-Inongruent.jpg,33,incongruent,m,right,m,TRUE,1,411,To test whether real-world knowledge of which object is bigger affects participant speed/ accuracy of determining which image is bigger (may or may not correspond to real world proportions),No
gorilla,p01pepaop6w,bigger,100,32,104204,stimuli/4-Inongruent.jpg,4,incongruent,m,right,m,TRUE,1,301,To test whether real-world knowledge of which object is bigger affects participant speed/ accuracy of determining which image is bigger (may or may not correspond to real world proportions),No
gorilla,p01pepaop6w,bigger,103,33,106476,stimuli/17-Inongruent.jpg,17,incongruent,m,right,m,TRUE,1,359,To test whether real-world knowledge of which object is bigger affects participant speed/ accuracy of determining which image is bigger (may or may not correspond to real world proportions),No
gorilla,p01pepaop6w,bigger,106,34,108764,stimuli/33-Congruent.jpg,33,congruent,z,left,z,TRUE,1,369,To test whether real-world knowledge of which object is bigger affects participant speed/ accuracy of determining which image is bigger (may or may not correspond to real world proportions),No
gorilla,p01pepaop6w,bigger,109,35,111130,stimuli/3-Congruent.jpg,3,congruent,z,left,z,TRUE,1,449,To test whether real-world knowledge of which object is bigger affects participant speed/ accuracy of determining which image is bigger (may or may not correspond to real world proportions),No
gorilla,p01pepaop6w,bigger,112,36,113408,stimuli/35-Inongruent.jpg,35,incongruent,m,right,m,TRUE,1,368,To test whether real-world knowledge of which object is bigger affects participant speed/ accuracy of determining which image is bigger (may or may not correspond to real world proportions),No
gorilla,p01pepaop6w,bigger,115,37,115702,stimuli/28-Congruent.jpg,28,congruent,z,left,z,TRUE,1,359,To test whether real-world knowledge of which object is bigger affects participant speed/ accuracy of determining which image is bigger (may or may not correspond to real world proportions),No
gorilla,p01pepaop6w,bigger,118,38,117960,stimuli/2-Inongruent.jpg,2,incongruent,m,right,m,TRUE,1,331,To test whether real-world knowledge of which object is bigger affects participant speed/ accuracy of determining which image is bigger (may or may not correspond to real world proportions),No
gorilla,p01pepaop6w,bigger,121,39,120240,stimuli/31-Congruent.jpg,31,congruent,z,left,z,TRUE,1,352,To test whether real-world knowledge of which object is bigger affects participant speed/ accuracy of determining which image is bigger (may or may not correspond to real world proportions),No
gorilla,p01pepaop6w,bigger,124,40,122448,stimuli/5-Inongruent.jpg,5,incongruent,m,right,m,TRUE,1,287,To test whether real-world knowledge of which object is bigger affects participant speed/ accuracy of determining which image is bigger (may or may not correspond to real world proportions),No
gorilla,p01pepaop6w,bigger,127,41,124684,stimuli/7-Inongruent.jpg,7,incongruent,m,right,m,TRUE,1,303,To test whether real-world knowledge of which object is bigger affects participant speed/ accuracy of determining which image is bigger (may or may not correspond to real world proportions),No
gorilla,p01pepaop6w,bigger,130,42,126954,stimuli/31-Inongruent.jpg,31,incongruent,m,right,m,TRUE,1,347,To test whether real-world knowledge of which object is bigger affects participant speed/ accuracy of determining which image is bigger (may or may not correspond to real world proportions),No
gorilla,p01pepaop6w,bigger,133,43,129092,stimuli/1-Inongruent.jpg,1,incongruent,m,right,m,TRUE,1,222,To test whether real-world knowledge of which object is bigger affects participant speed/ accuracy of determining which image is bigger (may or may not correspond to real world proportions),No
gorilla,p01pepaop6w,bigger,136,44,131362,stimuli/18-Congruent.jpg,18,congruent,z,left,z,TRUE,1,344,To test whether real-world knowledge of which object is bigger affects participant speed/ accuracy of determining which image is bigger (may or may not correspond to real world proportions),No
gorilla,p01pepaop6w,bigger,139,45,133593,stimuli/36-Inongruent.jpg,36,incongruent,m,right,m,TRUE,1,304,To test whether real-world knowledge of which object is bigger affects participant speed/ accuracy of determining which image is bigger (may or may not correspond to real world proportions),No
gorilla,p01pepaop6w,bigger,142,46,135824,stimuli/4-Congruent.jpg,4,congruent,m,left,z,FALSE,0,309,To test whether real-world knowledge of which object is bigger affects participant speed/ accuracy of determining which image is bigger (may or may not correspond to real world proportions),No
gorilla,p01pepaop6w,bigger,145,47,137378,stimuli/8-Inongruent.jpg,8,incongruent,m,right,m,TRUE,1,547,To test whether real-world knowledge of which object is bigger affects participant speed/ accuracy of determining which image is bigger (may or may not correspond to real world proportions),No
gorilla,p01pepaop6w,bigger,148,48,139686,stimuli/15-Congruent.jpg,15,congruent,z,left,z,TRUE,1,396,To test whether real-world knowledge of which object is bigger affects participant speed/ accuracy of determining which image is bigger (may or may not correspond to real world proportions),No
gorilla,p01pepaop6w,bigger,151,49,141919,stimuli/10-Inongruent.jpg,10,incongruent,m,right,m,TRUE,1,314,To test whether real-world knowledge of which object is bigger affects participant speed/ accuracy of determining which image is bigger (may or may not correspond to real world proportions),No
gorilla,p01pepaop6w,bigger,154,50,144241,stimuli/31-Congruent.jpg,31,congruent,z,left,z,TRUE,1,412,To test whether real-world knowledge of which object is bigger affects participant speed/ accuracy of determining which image is bigger (may or may not correspond to real world proportions),No
gorilla,p01pepaop6w,bigger,157,51,146541,stimuli/10-Congruent.jpg,10,congruent,z,left,z,TRUE,1,379,To test whether real-world knowledge of which object is bigger affects participant speed/ accuracy of determining which image is bigger (may or may not correspond to real world proportions),No
gorilla,p01pepaop6w,bigger,160,52,148910,stimuli/6-Congruent.jpg,6,congruent,z,left,z,TRUE,1,444,To test whether real-world knowledge of which object is bigger affects participant speed/ accuracy of determining which image is bigger (may or may not correspond to real world proportions),No
gorilla,p01pepaop6w,bigger,163,53,151285,stimuli/26-Congruent.jpg,26,congruent,z,left,z,TRUE,1,446,To test whether real-world knowledge of which object is bigger affects participant speed/ accuracy of determining which image is bigger (may or may not correspond to real world proportions),No
gorilla,p01pepaop6w,bigger,166,54,153537,stimuli/13-Inongruent.jpg,13,incongruent,m,right,m,TRUE,1,333,To test whether real-world knowledge of which object is bigger affects participant speed/ accuracy of determining which image is bigger (may or may not correspond to real world proportions),No
gorilla,p01pepaop6w,bigger,169,55,155917,stimuli/4-Congruent.jpg,4,congruent,z,left,z,TRUE,1,460,To test whether real-world knowledge of which object is bigger affects participant speed/ accuracy of determining which image is bigger (may or may not correspond to real world proportions),No
gorilla,p01pepaop6w,bigger,172,56,158198,stimuli/17-Congruent.jpg,17,congruent,z,left,z,TRUE,1,361,To test whether real-world knowledge of which object is bigger affects participant speed/ accuracy of determining which image is bigger (may or may not correspond to real world proportions),No
gorilla,p01pepaop6w,bigger,175,57,160448,stimuli/26-Inongruent.jpg,26,incongruent,m,right,m,TRUE,1,330,To test whether real-world knowledge of which object is bigger affects participant speed/ accuracy of determining which image is bigger (may or may not correspond to real world proportions),No
gorilla,p01pepaop6w,bigger,178,58,162783,stimuli/24-Congruent.jpg,24,congruent,z,left,z,TRUE,1,414,To test whether real-world knowledge of which object is bigger affects participant speed/ accuracy of determining which image is bigger (may or may not correspond to real world proportions),No
gorilla,p01pepaop6w,bigger,181,59,165080,stimuli/19-Inongruent.jpg,19,incongruent,m,right,m,TRUE,1,380,To test whether real-world knowledge of which object is bigger affects participant speed/ accuracy of determining which image is bigger (may or may not correspond to real world proportions),No
gorilla,p01pepaop6w,bigger,184,60,167322,stimuli/22-Congruent.jpg,22,congruent,z,left,z,TRUE,1,317,To test whether real-world knowledge of which object is bigger affects participant speed/ accuracy of determining which image is bigger (may or may not correspond to real world proportions),No
gorilla,p01pepaop6w,bigger,187,61,169527,stimuli/30-Inongruent.jpg,30,incongruent,m,right,m,TRUE,1,297,To test whether real-world knowledge of which object is bigger affects participant speed/ accuracy of determining which image is bigger (may or may not correspond to real world proportions),No
gorilla,p01pepaop6w,bigger,190,62,171802,stimuli/12-Congruent.jpg,12,congruent,z,left,z,TRUE,1,367,To test whether real-world knowledge of which object is bigger affects participant speed/ accuracy of determining which image is bigger (may or may not correspond to real world proportions),No
gorilla,p01pepaop6w,bigger,193,63,174146,stimuli/11-Congruent.jpg,11,congruent,z,left,z,TRUE,1,422,To test whether real-world knowledge of which object is bigger affects participant speed/ accuracy of determining which image is bigger (may or may not correspond to real world proportions),No
gorilla,p01pepaop6w,bigger,196,64,176432,stimuli/14-Inongruent.jpg,14,incongruent,m,right,m,TRUE,1,354,To test whether real-world knowledge of which object is bigger affects participant speed/ accuracy of determining which image is bigger (may or may not correspond to real world proportions),No
gorilla,p01pepaop6w,bigger,199,65,178770,stimuli/22-Congruent.jpg,22,congruent,z,left,z,TRUE,1,401,To test whether real-world knowledge of which object is bigger affects participant speed/ accuracy of determining which image is bigger (may or may not correspond to real world proportions),No
gorilla,p01pepaop6w,bigger,202,66,181089,stimuli/29-Congruent.jpg,29,congruent,z,left,z,TRUE,1,404,To test whether real-world knowledge of which object is bigger affects participant speed/ accuracy of determining which image is bigger (may or may not correspond to real world proportions),No
gorilla,p01pepaop6w,bigger,205,67,183377,stimuli/14-Congruent.jpg,14,congruent,z,left,z,TRUE,1,373,To test whether real-world knowledge of which object is bigger affects participant speed/ accuracy of determining which image is bigger (may or may not correspond to real world proportions),No
gorilla,p01pepaop6w,bigger,208,68,185587,stimuli/6-Inongruent.jpg,6,incongruent,m,right,m,TRUE,1,294,To test whether real-world knowledge of which object is bigger affects participant speed/ accuracy of determining which image is bigger (may or may not correspond to real world proportions),No
gorilla,p01pepaop6w,bigger,211,69,187891,stimuli/28-Inongruent.jpg,28,incongruent,m,right,m,TRUE,1,380,To test whether real-world knowledge of which object is bigger affects participant speed/ accuracy of determining which image is bigger (may or may not correspond to real world proportions),No
gorilla,p01pepaop6w,bigger,214,70,190217,stimuli/20-Congruent.jpg,20,congruent,z,left,z,TRUE,1,414,To test whether real-world knowledge of which object is bigger affects participant speed/ accuracy of determining which image is bigger (may or may not correspond to real world proportions),No
gorilla,p01pepaop6w,bigger,217,71,192476,stimuli/20-Inongruent.jpg,20,incongruent,m,right,m,TRUE,1,329,To test whether real-world knowledge of which object is bigger affects participant speed/ accuracy of determining which image is bigger (may or may not correspond to real world proportions),No
gorilla,p01pepaop6w,bigger,220,72,194775,stimuli/26-Congruent.jpg,26,congruent,z,left,z,TRUE,1,370,To test whether real-world knowledge of which object is bigger affects participant speed/ accuracy of determining which image is bigger (may or may not correspond to real world proportions),No
gorilla,p01pepaop6w,bigger,223,73,196921,stimuli/19-Inongruent.jpg,19,incongruent,m,right,m,TRUE,1,234,To test whether real-world knowledge of which object is bigger affects participant speed/ accuracy of determining which image is bigger (may or may not correspond to real world proportions),No
gorilla,p01pepaop6w,bigger,226,74,199251,stimuli/21-Inongruent.jpg,21,incongruent,m,right,m,TRUE,1,416,To test whether real-world knowledge of which object is bigger affects participant speed/ accuracy of determining which image is bigger (may or may not correspond to real world proportions),No
gorilla,p01pepaop6w,bigger,229,75,201518,stimuli/25-Inongruent.jpg,25,incongruent,m,right,m,TRUE,1,343,To test whether real-world knowledge of which object is bigger affects participant speed/ accuracy of determining which image is bigger (may or may not correspond to real world proportions),No
gorilla,p01pepaop6w,bigger,232,76,203877,stimuli/18-Inongruent.jpg,18,incongruent,m,right,m,TRUE,1,444,To test whether real-world knowledge of which object is bigger affects participant speed/ accuracy of determining which image is bigger (may or may not correspond to real world proportions),No
gorilla,p01pepaop6w,bigger,235,77,206223,stimuli/25-Congruent.jpg,25,congruent,z,left,z,TRUE,1,421,To test whether real-world knowledge of which object is bigger affects participant speed/ accuracy of determining which image is bigger (may or may not correspond to real world proportions),No
gorilla,p01pepaop6w,bigger,238,78,208530,stimuli/6-Congruent.jpg,6,congruent,z,left,z,TRUE,1,385,To test whether real-world knowledge of which object is bigger affects participant speed/ accuracy of determining which image is bigger (may or may not correspond to real world proportions),No
gorilla,p01pepaop6w,bigger,241,79,210856,stimuli/9-Congruent.jpg,9,congruent,z,left,z,TRUE,1,403,To test whether real-world knowledge of which object is bigger affects participant speed/ accuracy of determining which image is bigger (may or may not correspond to real world proportions),No
gorilla,p01pepaop6w,bigger,244,80,213389,stimuli/29-Congruent.jpg,29,congruent,z,left,z,TRUE,1,612,To test whether real-world knowledge of which object is bigger affects participant speed/ accuracy of determining which image is bigger (may or may not correspond to real world proportions),No
gorilla,p01pepaop6w,bigger,247,81,215714,stimuli/23-Inongruent.jpg,23,incongruent,m,right,m,TRUE,1,393,To test whether real-world knowledge of which object is bigger affects participant speed/ accuracy of determining which image is bigger (may or may not correspond to real world proportions),No
gorilla,p01pepaop6w,bigger,250,82,218026,stimuli/2-Inongruent.jpg,2,incongruent,m,right,m,TRUE,1,383,To test whether real-world knowledge of which object is bigger affects participant speed/ accuracy of determining which image is bigger (may or may not correspond to real world proportions),No
gorilla,p01pepaop6w,bigger,253,83,220355,stimuli/5-Congruent.jpg,5,congruent,z,left,z,TRUE,1,410,To test whether real-world knowledge of which object is bigger affects participant speed/ accuracy of determining which image is bigger (may or may not correspond to real world proportions),No
gorilla,p01pepaop6w,bigger,256,84,222625,stimuli/12-Inongruent.jpg,12,incongruent,m,right,m,TRUE,1,349,To test whether real-world knowledge of which object is bigger affects participant speed/ accuracy of determining which image is bigger (may or may not correspond to real world proportions),No
gorilla,p01pepaop6w,bigger,259,85,224975,stimuli/36-Congruent.jpg,36,congruent,z,left,z,TRUE,1,417,To test whether real-world knowledge of which object is bigger affects participant speed/ accuracy of determining which image is bigger (may or may not correspond to real world proportions),No
gorilla,p01pepaop6w,bigger,262,86,227253,stimuli/23-Inongruent.jpg,23,incongruent,m,right,m,TRUE,1,352,To test whether real-world knowledge of which object is bigger affects participant speed/ accuracy of determining which image is bigger (may or may not correspond to real world proportions),No
gorilla,p01pepaop6w,bigger,265,87,229724,stimuli/21-Inongruent.jpg,21,incongruent,z,right,m,FALSE,0,554,To test whether real-world knowledge of which object is bigger affects participant speed/ accuracy of determining which image is bigger (may or may not correspond to real world proportions),No
gorilla,p01pepaop6w,bigger,268,88,237227,stimuli/2-Congruent.jpg,2,congruent,z,left,z,TRUE,1,1486,To test whether real-world knowledge of which object is bigger affects participant speed/ accuracy of determining which image is bigger (may or may not correspond to real world proportions),No
gorilla,p01pepaop6w,bigger,271,89,239578,stimuli/5-Congruent.jpg,5,congruent,z,left,z,TRUE,1,434,To test whether real-world knowledge of which object is bigger affects participant speed/ accuracy of determining which image is bigger (may or may not correspond to real world proportions),No
gorilla,p01pepaop6w,bigger,274,90,242488,stimuli/35-Congruent.jpg,35,congruent,z,left,z,TRUE,1,981,To test whether real-world knowledge of which object is bigger affects participant speed/ accuracy of determining which image is bigger (may or may not correspond to real world proportions),No
gorilla,p01pepaop6w,bigger,277,91,245125,stimuli/33-Congruent.jpg,33,congruent,z,left,z,TRUE,1,723,To test whether real-world knowledge of which object is bigger affects participant speed/ accuracy of determining which image is bigger (may or may not correspond to real world proportions),No
gorilla,p01pepaop6w,bigger,280,92,247462,stimuli/29-Inongruent.jpg,29,incongruent,m,right,m,TRUE,1,423,To test whether real-world knowledge of which object is bigger affects participant speed/ accuracy of determining which image is bigger (may or may not correspond to real world proportions),No
gorilla,p01pepaop6w,bigger,283,93,249757,stimuli/7-Congruent.jpg,7,congruent,z,left,z,TRUE,1,370,To test whether real-world knowledge of which object is bigger affects participant speed/ accuracy of determining which image is bigger (may or may not correspond to real world proportions),No
gorilla,p01pepaop6w,bigger,286,94,252367,stimuli/35-Congruent.jpg,35,congruent,z,left,z,TRUE,1,693,To test whether real-world knowledge of which object is bigger affects participant speed/ accuracy of determining which image is bigger (may or may not correspond to real world proportions),No
gorilla,p01pepaop6w,bigger,289,95,254651,stimuli/11-Inongruent.jpg,11,incongruent,m,right,m,TRUE,1,363,To test whether real-world knowledge of which object is bigger affects participant speed/ accuracy of determining which image is bigger (may or may not correspond to real world proportions),No
gorilla,p01pepaop6w,bigger,292,96,257063,stimuli/7-Congruent.jpg,7,congruent,z,left,z,TRUE,1,481,To test whether real-world knowledge of which object is bigger affects participant speed/ accuracy of determining which image is bigger (may or may not correspond to real world proportions),No
gorilla,p01pepaop6w,bigger,295,97,259305,stimuli/16-Inongruent.jpg,16,incongruent,m,right,m,TRUE,1,328,To test whether real-world knowledge of which object is bigger affects participant speed/ accuracy of determining which image is bigger (may or may not correspond to real world proportions),No
gorilla,p01pepaop6w,bigger,298,98,261609,stimuli/31-Inongruent.jpg,31,incongruent,m,right,m,TRUE,1,388,To test whether real-world knowledge of which object is bigger affects participant speed/ accuracy of determining which image is bigger (may or may not correspond to real world proportions),No
gorilla,p01pepaop6w,bigger,301,99,263795,stimuli/8-Inongruent.jpg,8,incongruent,m,right,m,TRUE,1,263,To test whether real-world knowledge of which object is bigger affects participant speed/ accuracy of determining which image is bigger (may or may not correspond to real world proportions),No
gorilla,p01pepaop6w,bigger,304,100,266227,stimuli/30-Inongruent.jpg,30,incongruent,m,right,m,TRUE,1,503,To test whether real-world knowledge of which object is bigger affects participant speed/ accuracy of determining which image is bigger (may or may not correspond to real world proportions),No
gorilla,p01pepaop6w,bigger,307,101,268844,stimuli/27-Inongruent.jpg,27,incongruent,m,right,m,TRUE,1,684,To test whether real-world knowledge of which object is bigger affects participant speed/ accuracy of determining which image is bigger (may or may not correspond to real world proportions),No
gorilla,p01pepaop6w,bigger,310,102,271207,stimuli/24-Congruent.jpg,24,congruent,z,left,z,TRUE,1,441,To test whether real-world knowledge of which object is bigger affects participant speed/ accuracy of determining which image is bigger (may or may not correspond to real world proportions),No
gorilla,p01pepaop6w,bigger,313,103,273585,stimuli/10-Congruent.jpg,10,congruent,z,left,z,TRUE,1,463,To test whether real-world knowledge of which object is bigger affects participant speed/ accuracy of determining which image is bigger (may or may not correspond to real world proportions),No
gorilla,p01pepaop6w,bigger,316,104,275867,stimuli/24-Inongruent.jpg,24,incongruent,m,right,m,TRUE,1,359,To test whether real-world knowledge of which object is bigger affects participant speed/ accuracy of determining which image is bigger (may or may not correspond to real world proportions),No
gorilla,p01pepaop6w,bigger,319,105,278150,stimuli/21-Congruent.jpg,21,congruent,z,left,z,TRUE,1,350,To test whether real-world knowledge of which object is bigger affects participant speed/ accuracy of determining which image is bigger (may or may not correspond to real world proportions),No
gorilla,p01pepaop6w,bigger,322,106,280366,stimuli/8-Congruent.jpg,8,congruent,m,left,z,FALSE,0,304,To test whether real-world knowledge of which object is bigger affects participant speed/ accuracy of determining which image is bigger (may or may not correspond to real world proportions),No
gorilla,p01pepaop6w,bigger,325,107,286873,stimuli/22-Inongruent.jpg,22,incongruent,m,right,m,TRUE,1,471,To test whether real-world knowledge of which object is bigger affects participant speed/ accuracy of determining which image is bigger (may or may not correspond to real world proportions),No
gorilla,p01pepaop6w,bigger,328,108,289228,stimuli/32-Congruent.jpg,32,congruent,z,left,z,TRUE,1,427,To test whether real-world knowledge of which object is bigger affects participant speed/ accuracy of determining which image is bigger (may or may not correspond to real world proportions),No
gorilla,p01pepaop6w,bigger,331,109,291660,stimuli/27-Congruent.jpg,27,congruent,z,left,z,TRUE,1,512,To test whether real-world knowledge of which object is bigger affects participant speed/ accuracy of determining which image is bigger (may or may not correspond to real world proportions),No
gorilla,p01pepaop6w,bigger,334,110,293959,stimuli/3-Inongruent.jpg,3,incongruent,m,right,m,TRUE,1,385,To test whether real-world knowledge of which object is bigger affects participant speed/ accuracy of determining which image is bigger (may or may not correspond to real world proportions),No
gorilla,p01pepaop6w,bigger,337,111,296279,stimuli/26-Inongruent.jpg,26,incongruent,m,right,m,TRUE,1,402,To test whether real-world knowledge of which object is bigger affects participant speed/ accuracy of determining which image is bigger (may or may not correspond to real world proportions),No
gorilla,p01pepaop6w,bigger,340,112,298943,stimuli/3-Inongruent.jpg,3,incongruent,m,right,m,TRUE,1,740,To test whether real-world knowledge of which object is bigger affects participant speed/ accuracy of determining which image is bigger (may or may not correspond to real world proportions),No
gorilla,p01pepaop6w,bigger,343,113,301931,stimuli/10-Inongruent.jpg,10,incongruent,m,right,m,TRUE,1,1070,To test whether real-world knowledge of which object is bigger affects participant speed/ accuracy of determining which image is bigger (may or may not correspond to real world proportions),No
gorilla,p01pepaop6w,bigger,346,114,304274,stimuli/32-Congruent.jpg,32,congruent,z,left,z,TRUE,1,428,To test whether real-world knowledge of which object is bigger affects participant speed/ accuracy of determining which image is bigger (may or may not correspond to real world proportions),No
gorilla,p01pepaop6w,bigger,349,115,306633,stimuli/15-Congruent.jpg,15,congruent,z,left,z,TRUE,1,449,To test whether real-world knowledge of which object is bigger affects participant speed/ accuracy of determining which image is bigger (may or may not correspond to real world proportions),No
gorilla,p01pepaop6w,bigger,352,116,308937,stimuli/17-Inongruent.jpg,17,incongruent,m,right,m,TRUE,1,382,To test whether real-world knowledge of which object is bigger affects participant speed/ accuracy of determining which image is bigger (may or may not correspond to real world proportions),No
gorilla,p01pepaop6w,bigger,355,117,311161,stimuli/33-Inongruent.jpg,33,incongruent,m,right,m,TRUE,1,298,To test whether real-world knowledge of which object is bigger affects participant speed/ accuracy of determining which image is bigger (may or may not correspond to real world proportions),No
gorilla,p01pepaop6w,bigger,358,118,313352,stimuli/1-Inongruent.jpg,1,incongruent,m,right,m,TRUE,1,254,To test whether real-world knowledge of which object is bigger affects participant speed/ accuracy of determining which image is bigger (may or may not correspond to real world proportions),No
gorilla,p01pepaop6w,bigger,361,119,315807,stimuli/17-Congruent.jpg,17,congruent,z,left,z,TRUE,1,525,To test whether real-world knowledge of which object is bigger affects participant speed/ accuracy of determining which image is bigger (may or may not correspond to real world proportions),No
gorilla,p01pepaop6w,bigger,364,120,318184,stimuli/12-Congruent.jpg,12,congruent,z,left,z,TRUE,1,465,To test whether real-world knowledge of which object is bigger affects participant speed/ accuracy of determining which image is bigger (may or may not correspond to real world proportions),No
gorilla,p01pepaop6w,bigger,367,121,320494,stimuli/16-Congruent.jpg,16,congruent,z,left,z,TRUE,1,388,To test whether real-world knowledge of which object is bigger affects participant speed/ accuracy of determining which image is bigger (may or may not correspond to real world proportions),No
gorilla,p01pepaop6w,bigger,370,122,322876,stimuli/15-Inongruent.jpg,15,incongruent,m,right,m,TRUE,1,465,To test whether real-world knowledge of which object is bigger affects participant speed/ accuracy of determining which image is bigger (may or may not correspond to real world proportions),No
gorilla,p01pepaop6w,bigger,373,123,325131,stimuli/7-Inongruent.jpg,7,incongruent,m,right,m,TRUE,1,329,To test whether real-world knowledge of which object is bigger affects participant speed/ accuracy of determining which image is bigger (may or may not correspond to real world proportions),No
gorilla,p01pepaop6w,bigger,376,124,327154,stimuli/9-Inongruent.jpg,9,incongruent,m,right,m,TRUE,1,953,To test whether real-world knowledge of which object is bigger affects participant speed/ accuracy of determining which image is bigger (may or may not correspond to real world proportions),No
gorilla,p01pepaop6w,bigger,379,125,329436,stimuli/32-Inongruent.jpg,32,incongruent,m,right,m,TRUE,1,346,To test whether real-world knowledge of which object is bigger affects participant speed/ accuracy of determining which image is bigger (may or may not correspond to real world proportions),No
gorilla,p01pepaop6w,bigger,382,126,331833,stimuli/34-Congruent.jpg,34,congruent,z,left,z,TRUE,1,477,To test whether real-world knowledge of which object is bigger affects participant speed/ accuracy of determining which image is bigger (may or may not correspond to real world proportions),No
gorilla,p01pepaop6w,bigger,385,127,334094,stimuli/11-Inongruent.jpg,11,incongruent,m,right,m,TRUE,1,339,To test whether real-world knowledge of which object is bigger affects participant speed/ accuracy of determining which image is bigger (may or may not correspond to real world proportions),No
gorilla,p01pepaop6w,bigger,388,128,336293,stimuli/25-Inongruent.jpg,25,incongruent,m,right,m,TRUE,1,277,To test whether real-world knowledge of which object is bigger affects participant speed/ accuracy of determining which image is bigger (may or may not correspond to real world proportions),No
gorilla,p01pepaop6w,bigger,391,129,338473,stimuli/12-Inongruent.jpg,12,incongruent,m,right,m,TRUE,1,253,To test whether real-world knowledge of which object is bigger affects participant speed/ accuracy of determining which image is bigger (may or may not correspond to real world proportions),No
gorilla,p01pepaop6w,bigger,394,130,340731,stimuli/16-Inongruent.jpg,16,incongruent,m,right,m,TRUE,1,329,To test whether real-world knowledge of which object is bigger affects participant speed/ accuracy of determining which image is bigger (may or may not correspond to real world proportions),No
gorilla,p01pepaop6w,bigger,397,131,343029,stimuli/28-Congruent.jpg,28,congruent,z,left,z,TRUE,1,376,To test whether real-world knowledge of which object is bigger affects participant speed/ accuracy of determining which image is bigger (may or may not correspond to real world proportions),No
gorilla,p01pepaop6w,bigger,400,132,345563,stimuli/19-Congruent.jpg,19,congruent,z,left,z,TRUE,1,605,To test whether real-world knowledge of which object is bigger affects participant speed/ accuracy of determining which image is bigger (may or may not correspond to real world proportions),No
gorilla,p01pepaop6w,bigger,403,133,347873,stimuli/27-Inongruent.jpg,27,incongruent,m,right,m,TRUE,1,380,To test whether real-world knowledge of which object is bigger affects participant speed/ accuracy of determining which image is bigger (may or may not correspond to real world proportions),No
gorilla,p01pepaop6w,bigger,406,134,350299,stimuli/36-Congruent.jpg,36,congruent,z,left,z,TRUE,1,509,To test whether real-world knowledge of which object is bigger affects participant speed/ accuracy of determining which image is bigger (may or may not correspond to real world proportions),No
gorilla,p01pepaop6w,bigger,409,135,352812,stimuli/19-Congruent.jpg,19,congruent,z,left,z,TRUE,1,582,To test whether real-world knowledge of which object is bigger affects participant speed/ accuracy of determining which image is bigger (may or may not correspond to real world proportions),No
gorilla,p01pepaop6w,bigger,412,136,355121,stimuli/15-Inongruent.jpg,15,incongruent,m,right,m,TRUE,1,388,To test whether real-world knowledge of which object is bigger affects participant speed/ accuracy of determining which image is bigger (may or may not correspond to real world proportions),No
gorilla,p01pepaop6w,bigger,415,137,357329,stimuli/11-Congruent.jpg,11,congruent,z,left,z,TRUE,1,283,To test whether real-world knowledge of which object is bigger affects participant speed/ accuracy of determining which image is bigger (may or may not correspond to real world proportions),No
gorilla,p01pepaop6w,bigger,418,138,360016,stimuli/18-Congruent.jpg,18,congruent,z,left,z,TRUE,1,759,To test whether real-world knowledge of which object is bigger affects participant speed/ accuracy of determining which image is bigger (may or may not correspond to real world proportions),No
gorilla,p01pepaop6w,bigger,421,139,362408,stimuli/8-Congruent.jpg,8,congruent,z,left,z,TRUE,1,476,To test whether real-world knowledge of which object is bigger affects participant speed/ accuracy of determining which image is bigger (may or may not correspond to real world proportions),No
gorilla,p01pepaop6w,bigger,424,140,364946,stimuli/1-Congruent.jpg,1,congruent,z,left,z,TRUE,1,616,To test whether real-world knowledge of which object is bigger affects participant speed/ accuracy of determining which image is bigger (may or may not correspond to real world proportions),No
gorilla,p01pepaop6w,bigger,427,141,367212,stimuli/3-Congruent.jpg,3,congruent,z,left,z,TRUE,1,351,To test whether real-world knowledge of which object is bigger affects participant speed/ accuracy of determining which image is bigger (may or may not correspond to real world proportions),No
gorilla,p01pepaop6w,bigger,430,142,369601,stimuli/16-Congruent.jpg,16,congruent,z,left,z,TRUE,1,466,To test whether real-world knowledge of which object is bigger affects participant speed/ accuracy of determining which image is bigger (may or may not correspond to real world proportions),No
gorilla,p01pepaop6w,bigger,433,143,371900,stimuli/35-Inongruent.jpg,35,incongruent,m,right,m,TRUE,1,371,To test whether real-world knowledge of which object is bigger affects participant speed/ accuracy of determining which image is bigger (may or may not correspond to real world proportions),No
gorilla,p01pepaop6w,bigger,436,144,374156,stimuli/9-Congruent.jpg,9,congruent,z,left,z,TRUE,1,328,To test whether real-world knowledge of which object is bigger affects participant speed/ accuracy of determining which image is bigger (may or may not correspond to real world proportions),No
raccoon,p0c3y7vydr1,smaller,7,1,14882,stimuli/13-Inongruent.jpg,13,incongruent,m,left,z,FALSE,0,808,see how size affects our perception,no
raccoon,p0c3y7vydr1,smaller,10,2,21570,stimuli/22-Congruent.jpg,22,congruent,m,right,m,TRUE,1,662,see how size affects our perception,no
raccoon,p0c3y7vydr1,smaller,13,3,24034,stimuli/26-Inongruent.jpg,26,incongruent,z,left,z,TRUE,1,545,see how size affects our perception,no
raccoon,p0c3y7vydr1,smaller,16,4,26778,stimuli/1-Congruent.jpg,1,congruent,m,right,m,TRUE,1,823,see how size affects our perception,no
raccoon,p0c3y7vydr1,smaller,19,5,29338,stimuli/24-Congruent.jpg,24,congruent,m,right,m,TRUE,1,651,see how size affects our perception,no
raccoon,p0c3y7vydr1,smaller,22,6,31682,stimuli/17-Congruent.jpg,17,congruent,m,right,m,TRUE,1,429,see how size affects our perception,no
raccoon,p0c3y7vydr1,smaller,25,7,34042,stimuli/4-Inongruent.jpg,4,incongruent,z,left,z,TRUE,1,446,see how size affects our perception,no
raccoon,p0c3y7vydr1,smaller,28,8,36330,stimuli/20-Congruent.jpg,20,congruent,m,right,m,TRUE,1,361,see how size affects our perception,no
raccoon,p0c3y7vydr1,smaller,31,9,38578,stimuli/34-Congruent.jpg,34,congruent,m,right,m,TRUE,1,334,see how size affects our perception,no
raccoon,p0c3y7vydr1,smaller,34,10,40874,stimuli/30-Congruent.jpg,30,congruent,m,right,m,TRUE,1,366,see how size affects our perception,no
raccoon,p0c3y7vydr1,smaller,37,11,56546,stimuli/24-Congruent.jpg,24,congruent,m,right,m,TRUE,1,13754,see how size affects our perception,no
raccoon,p0c3y7vydr1,smaller,40,12,60050,stimuli/23-Inongruent.jpg,23,incongruent,z,left,z,TRUE,1,1576,see how size affects our perception,no
raccoon,p0c3y7vydr1,smaller,43,13,62506,stimuli/19-Inongruent.jpg,19,incongruent,z,left,z,TRUE,1,525,see how size affects our perception,no
raccoon,p0c3y7vydr1,smaller,46,14,65266,stimuli/32-Congruent.jpg,32,congruent,m,right,m,TRUE,1,829,see how size affects our perception,no
raccoon,p0c3y7vydr1,smaller,49,15,67778,stimuli/6-Congruent.jpg,6,congruent,m,right,m,TRUE,1,581,see how size affects our perception,no
raccoon,p0c3y7vydr1,smaller,52,16,70714,stimuli/34-Inongruent.jpg,34,incongruent,z,left,z,TRUE,1,1018,see how size affects our perception,no
raccoon,p0c3y7vydr1,smaller,55,17,72978,stimuli/18-Congruent.jpg,18,congruent,m,right,m,TRUE,1,335,see how size affects our perception,no
raccoon,p0c3y7vydr1,smaller,58,18,75234,stimuli/19-Inongruent.jpg,19,incongruent,z,left,z,TRUE,1,335,see how size affects our perception,no
raccoon,p0c3y7vydr1,smaller,61,19,77530,stimuli/11-Congruent.jpg,11,congruent,m,right,m,TRUE,1,374,see how size affects our perception,no
raccoon,p0c3y7vydr1,smaller,64,20,79786,stimuli/21-Congruent.jpg,21,congruent,m,right,m,TRUE,1,345,see how size affects our perception,no
raccoon,p0c3y7vydr1,smaller,67,21,82026,stimuli/32-Inongruent.jpg,32,incongruent,z,left,z,TRUE,1,334,see how size affects our perception,no
raccoon,p0c3y7vydr1,smaller,70,22,84306,stimuli/4-Congruent.jpg,4,congruent,m,right,m,TRUE,1,361,see how size affects our perception,no
raccoon,p0c3y7vydr1,smaller,73,23,90410,stimuli/8-Congruent.jpg,8,congruent,m,right,m,TRUE,1,3808,see how size affects our perception,no
raccoon,p0c3y7vydr1,smaller,76,24,92762,stimuli/5-Congruent.jpg,5,congruent,m,right,m,TRUE,1,437,see how size affects our perception,no
raccoon,p0c3y7vydr1,smaller,79,25,95138,stimuli/21-Congruent.jpg,21,congruent,m,right,m,TRUE,1,459,see how size affects our perception,no
raccoon,p0c3y7vydr1,smaller,82,26,97602,stimuli/10-Inongruent.jpg,10,incongruent,z,left,z,TRUE,1,542,see how size affects our perception,no
raccoon,p0c3y7vydr1,smaller,85,27,100410,stimuli/11-Inongruent.jpg,11,incongruent,z,left,z,TRUE,1,886,see how size affects our perception,no
raccoon,p0c3y7vydr1,smaller,88,28,164722,stimuli/20-Inongruent.jpg,20,incongruent,z,left,z,TRUE,1,62384,see how size affects our perception,no
raccoon,p0c3y7vydr1,smaller,91,29,167290,stimuli/21-Inongruent.jpg,21,incongruent,z,left,z,TRUE,1,656,see how size affects our perception,no
raccoon,p0c3y7vydr1,smaller,94,30,169626,stimuli/29-Congruent.jpg,29,congruent,m,right,m,TRUE,1,419,see how size affects our perception,no
raccoon,p0c3y7vydr1,smaller,97,31,171890,stimuli/7-Congruent.jpg,7,congruent,m,right,m,TRUE,1,337,see how size affects our perception,no
raccoon,p0c3y7vydr1,smaller,100,32,174186,stimuli/36-Congruent.jpg,36,congruent,m,right,m,TRUE,1,370,see how size affects our perception,no
raccoon,p0c3y7vydr1,smaller,103,33,176530,stimuli/28-Congruent.jpg,28,congruent,m,right,m,TRUE,1,416,see how size affects our perception,no
raccoon,p0c3y7vydr1,smaller,106,34,178787,stimuli/18-Congruent.jpg,18,congruent,m,right,m,TRUE,1,339,see how size affects our perception,no
raccoon,p0c3y7vydr1,smaller,109,35,181067,stimuli/25-Inongruent.jpg,25,incongruent,z,left,z,TRUE,1,356,see how size affects our perception,no
raccoon,p0c3y7vydr1,smaller,112,36,231402,stimuli/35-Congruent.jpg,35,congruent,m,right,m,TRUE,1,47747,see how size affects our perception,no
raccoon,p0c3y7vydr1,smaller,115,37,233850,stimuli/8-Congruent.jpg,8,congruent,m,right,m,TRUE,1,527,see how size affects our perception,no
raccoon,p0c3y7vydr1,smaller,118,38,242866,stimuli/31-Congruent.jpg,31,congruent,m,right,m,TRUE,1,6201,see how size affects our perception,no
raccoon,p0c3y7vydr1,smaller,121,39,245211,stimuli/34-Congruent.jpg,34,congruent,m,right,m,TRUE,1,419,see how size affects our perception,no
raccoon,p0c3y7vydr1,smaller,124,40,247539,stimuli/3-Inongruent.jpg,3,incongruent,z,left,z,TRUE,1,404,see how size affects our perception,no
raccoon,p0c3y7vydr1,smaller,127,41,249819,stimuli/14-Inongruent.jpg,14,incongruent,z,left,z,TRUE,1,366,see how size affects our perception,no
raccoon,p0c3y7vydr1,smaller,130,42,252107,stimuli/24-Inongruent.jpg,24,incongruent,z,left,z,TRUE,1,361,see how size affects our perception,no
raccoon,p0c3y7vydr1,smaller,133,43,254379,stimuli/17-Inongruent.jpg,17,incongruent,z,left,z,TRUE,1,354,see how size affects our perception,no
raccoon,p0c3y7vydr1,smaller,136,44,256691,stimuli/30-Inongruent.jpg,30,incongruent,z,left,z,TRUE,1,385,see how size affects our perception,no
raccoon,p0c3y7vydr1,smaller,139,45,259059,stimuli/24-Inongruent.jpg,24,incongruent,z,left,z,TRUE,1,445,see how size affects our perception,no
raccoon,p0c3y7vydr1,smaller,142,46,261347,stimuli/16-Inongruent.jpg,16,incongruent,z,left,z,TRUE,1,372,see how size affects our perception,no
raccoon,p0c3y7vydr1,smaller,145,47,263658,stimuli/29-Inongruent.jpg,29,incongruent,z,left,z,TRUE,1,402,see how size affects our perception,no
raccoon,p0c3y7vydr1,smaller,148,48,266235,stimuli/35-Inongruent.jpg,35,incongruent,z,left,z,TRUE,1,652,see how size affects our perception,no
raccoon,p0c3y7vydr1,smaller,151,49,268531,stimuli/33-Congruent.jpg,33,congruent,m,right,m,TRUE,1,381,see how size affects our perception,no
raccoon,p0c3y7vydr1,smaller,154,50,270811,stimuli/6-Inongruent.jpg,6,incongruent,z,left,z,TRUE,1,367,see how size affects our perception,no
raccoon,p0c3y7vydr1,smaller,157,51,273763,stimuli/9-Inongruent.jpg,9,incongruent,z,left,z,TRUE,1,1038,see how size affects our perception,no
raccoon,p0c3y7vydr1,smaller,160,52,276155,stimuli/22-Congruent.jpg,22,congruent,m,right,m,TRUE,1,471,see how size affects our perception,no
raccoon,p0c3y7vydr1,smaller,163,53,278515,stimuli/2-Inongruent.jpg,2,incongruent,z,left,z,TRUE,1,439,see how size affects our perception,no
raccoon,p0c3y7vydr1,smaller,166,54,281219,stimuli/27-Inongruent.jpg,27,incongruent,z,left,z,TRUE,1,796,see how size affects our perception,no
raccoon,p0c3y7vydr1,smaller,169,55,283859,stimuli/27-Inongruent.jpg,27,incongruent,z,left,z,TRUE,1,713,see how size affects our perception,no
raccoon,p0c3y7vydr1,smaller,172,56,286435,stimuli/11-Congruent.jpg,11,congruent,m,right,m,TRUE,1,656,see how size affects our perception,no
raccoon,p0c3y7vydr1,smaller,175,57,288883,stimuli/15-Inongruent.jpg,15,incongruent,z,left,z,TRUE,1,524,see how size affects our perception,no
raccoon,p0c3y7vydr1,smaller,178,58,291923,stimuli/9-Inongruent.jpg,9,incongruent,z,left,z,TRUE,1,1121,see how size affects our perception,no
raccoon,p0c3y7vydr1,smaller,181,59,294347,stimuli/12-Congruent.jpg,12,congruent,m,right,m,TRUE,1,500,see how size affects our perception,no
raccoon,p0c3y7vydr1,smaller,184,60,296323,stimuli/15-Congruent.jpg,15,congruent,z,right,m,FALSE,0,97,see how size affects our perception,no
raccoon,p0c3y7vydr1,smaller,187,61,297570,stimuli/4-Congruent.jpg,4,congruent,z,right,m,FALSE,0,101,see how size affects our perception,no
raccoon,p0c3y7vydr1,smaller,190,62,298683,stimuli/11-Inongruent.jpg,11,incongruent,z,left,z,TRUE,1,24,see how size affects our perception,no
raccoon,p0c3y7vydr1,smaller,193,63,299850,stimuli/14-Inongruent.jpg,14,incongruent,m,left,z,FALSE,0,37,see how size affects our perception,no
raccoon,p0c3y7vydr1,smaller,196,64,300954,stimuli/19-Congruent.jpg,19,congruent,m,right,m,TRUE,1,14,see how size affects our perception,no
raccoon,p0c3y7vydr1,smaller,199,65,302299,stimuli/16-Inongruent.jpg,16,incongruent,m,left,z,FALSE,0,245,see how size affects our perception,no
raccoon,p0c3y7vydr1,smaller,202,66,304563,stimuli/36-Inongruent.jpg,36,incongruent,z,left,z,TRUE,1,905,see how size affects our perception,no
raccoon,p0c3y7vydr1,smaller,205,67,306419,stimuli/22-Inongruent.jpg,22,incongruent,z,left,z,TRUE,1,687,see how size affects our perception,no
raccoon,p0c3y7vydr1,smaller,208,68,308187,stimuli/12-Inongruent.jpg,12,incongruent,m,left,z,FALSE,0,461,see how size affects our perception,no
raccoon,p0c3y7vydr1,smaller,211,69,309851,stimuli/36-Congruent.jpg,36,congruent,m,right,m,TRUE,1,472,see how size affects our perception,no
raccoon,p0c3y7vydr1,smaller,214,70,311571,stimuli/5-Inongruent.jpg,5,incongruent,z,left,z,TRUE,1,544,see how size affects our perception,no
raccoon,p0c3y7vydr1,smaller,217,71,313947,stimuli/5-Inongruent.jpg,5,incongruent,z,left,z,TRUE,1,452,see how size affects our perception,no
raccoon,p0c3y7vydr1,smaller,220,72,315475,stimuli/13-Congruent.jpg,13,congruent,m,right,m,TRUE,1,367,see how size affects our perception,no
raccoon,p0c3y7vydr1,smaller,223,73,316955,stimuli/35-Congruent.jpg,35,congruent,m,right,m,TRUE,1,309,see how size affects our perception,no
raccoon,p0c3y7vydr1,smaller,226,74,318443,stimuli/29-Congruent.jpg,29,congruent,m,right,m,TRUE,1,322,see how size affects our perception,no
raccoon,p0c3y7vydr1,smaller,229,75,319979,stimuli/28-Inongruent.jpg,28,incongruent,z,left,z,TRUE,1,355,see how size affects our perception,no
raccoon,p0c3y7vydr1,smaller,232,76,321571,stimuli/25-Inongruent.jpg,25,incongruent,z,left,z,TRUE,1,425,see how size affects our perception,no
raccoon,p0c3y7vydr1,smaller,235,77,323091,stimuli/14-Congruent.jpg,14,congruent,m,right,m,TRUE,1,348,see how size affects our perception,no
raccoon,p0c3y7vydr1,smaller,238,78,324507,stimuli/16-Congruent.jpg,16,congruent,z,right,m,FALSE,0,243,see how size affects our perception,no
raccoon,p0c3y7vydr1,smaller,241,79,326083,stimuli/12-Congruent.jpg,12,congruent,m,right,m,TRUE,1,410,see how size affects our perception,no
raccoon,p0c3y7vydr1,smaller,244,80,327571,stimuli/13-Inongruent.jpg,13,incongruent,z,left,z,TRUE,1,316,see how size affects our perception,no
raccoon,p0c3y7vydr1,smaller,247,81,328995,stimuli/23-Congruent.jpg,23,congruent,m,right,m,TRUE,1,251,see how size affects our perception,no
raccoon,p0c3y7vydr1,smaller,250,82,330539,stimuli/27-Congruent.jpg,27,congruent,m,right,m,TRUE,1,374,see how size affects our perception,no
raccoon,p0c3y7vydr1,smaller,253,83,331963,stimuli/21-Inongruent.jpg,21,incongruent,z,left,z,TRUE,1,260,see how size affects our perception,no
raccoon,p0c3y7vydr1,smaller,256,84,333483,stimuli/32-Congruent.jpg,32,congruent,m,right,m,TRUE,1,355,see how size affects our perception,no
raccoon,p0c3y7vydr1,smaller,259,85,334955,stimuli/17-Inongruent.jpg,17,incongruent,z,left,z,TRUE,1,317,see how size affects our perception,no
raccoon,p0c3y7vydr1,smaller,262,86,336379,stimuli/13-Congruent.jpg,13,congruent,m,right,m,TRUE,1,289,see how size affects our perception,no
raccoon,p0c3y7vydr1,smaller,265,87,337907,stimuli/15-Congruent.jpg,15,congruent,m,right,m,TRUE,1,359,see how size affects our perception,no
raccoon,p0c3y7vydr1,smaller,268,88,339323,stimuli/31-Inongruent.jpg,31,incongruent,z,left,z,TRUE,1,258,see how size affects our perception,no
raccoon,p0c3y7vydr1,smaller,271,89,340771,stimuli/10-Inongruent.jpg,10,incongruent,m,left,z,FALSE,0,294,see how size affects our perception,no
raccoon,p0c3y7vydr1,smaller,274,90,342323,stimuli/31-Congruent.jpg,31,congruent,m,right,m,TRUE,1,370,see how size affects our perception,no
raccoon,p0c3y7vydr1,smaller,277,91,343795,stimuli/2-Inongruent.jpg,2,incongruent,z,left,z,TRUE,1,304,see how size affects our perception,no
raccoon,p0c3y7vydr1,smaller,280,92,345275,stimuli/2-Congruent.jpg,2,congruent,m,right,m,TRUE,1,324,see how size affects our perception,no
raccoon,p0c3y7vydr1,smaller,283,93,346731,stimuli/18-Inongruent.jpg,18,incongruent,z,left,z,TRUE,1,290,see how size affects our perception,no
raccoon,p0c3y7vydr1,smaller,286,94,348115,stimuli/2-Congruent.jpg,2,congruent,m,right,m,TRUE,1,247,see how size affects our perception,no
raccoon,p0c3y7vydr1,smaller,289,95,349571,stimuli/17-Congruent.jpg,17,congruent,m,right,m,TRUE,1,284,see how size affects our perception,no
raccoon,p0c3y7vydr1,smaller,292,96,350947,stimuli/23-Inongruent.jpg,23,incongruent,z,left,z,TRUE,1,186,see how size affects our perception,no
raccoon,p0c3y7vydr1,smaller,295,97,352187,stimuli/18-Inongruent.jpg,18,incongruent,m,left,z,FALSE,0,93,see how size affects our perception,no
raccoon,p0c3y7vydr1,smaller,298,98,353427,stimuli/6-Inongruent.jpg,6,incongruent,z,left,z,TRUE,1,55,see how size affects our perception,no
raccoon,p0c3y7vydr1,smaller,301,99,354755,stimuli/26-Inongruent.jpg,26,incongruent,z,left,z,TRUE,1,154,see how size affects our perception,no
raccoon,p0c3y7vydr1,smaller,304,100,356307,stimuli/6-Congruent.jpg,6,congruent,m,right,m,TRUE,1,361,see how size affects our perception,no
raccoon,p0c3y7vydr1,smaller,307,101,357683,stimuli/1-Congruent.jpg,1,congruent,z,right,m,FALSE,0,200,see how size affects our perception,no
raccoon,p0c3y7vydr1,smaller,310,102,359203,stimuli/7-Inongruent.jpg,7,incongruent,z,left,z,TRUE,1,358,see how size affects our perception,no
raccoon,p0c3y7vydr1,smaller,313,103,360739,stimuli/33-Congruent.jpg,33,congruent,m,right,m,TRUE,1,386,see how size affects our perception,no
raccoon,p0c3y7vydr1,smaller,316,104,362283,stimuli/25-Congruent.jpg,25,congruent,m,right,m,TRUE,1,367,see how size affects our perception,no
raccoon,p0c3y7vydr1,smaller,319,105,363835,stimuli/33-Inongruent.jpg,33,incongruent,z,left,z,TRUE,1,374,see how size affects our perception,no
raccoon,p0c3y7vydr1,smaller,322,106,365491,stimuli/12-Inongruent.jpg,12,incongruent,m,left,z,FALSE,0,499,see how size affects our perception,no
raccoon,p0c3y7vydr1,smaller,325,107,367131,stimuli/14-Congruent.jpg,14,congruent,m,right,m,TRUE,1,445,see how size affects our perception,no
raccoon,p0c3y7vydr1,smaller,328,108,368699,stimuli/23-Congruent.jpg,23,congruent,m,right,m,TRUE,1,380,see how size affects our perception,no
raccoon,p0c3y7vydr1,smaller,331,109,370203,stimuli/8-Inongruent.jpg,8,incongruent,z,left,z,TRUE,1,319,see how size affects our perception,no
raccoon,p0c3y7vydr1,smaller,334,110,371851,stimuli/28-Inongruent.jpg,28,incongruent,z,left,z,TRUE,1,482,see how size affects our perception,no
raccoon,p0c3y7vydr1,smaller,337,111,373395,stimuli/26-Congruent.jpg,26,congruent,m,right,m,TRUE,1,379,see how size affects our perception,no
raccoon,p0c3y7vydr1,smaller,340,112,374891,stimuli/31-Inongruent.jpg,31,incongruent,z,left,z,TRUE,1,333,see how size affects our perception,no
raccoon,p0c3y7vydr1,smaller,343,113,376403,stimuli/10-Congruent.jpg,10,congruent,m,right,m,TRUE,1,344,see how size affects our perception,no
raccoon,p0c3y7vydr1,smaller,346,114,378035,stimuli/3-Congruent.jpg,3,congruent,m,right,m,TRUE,1,442,see how size affects our perception,no
raccoon,p0c3y7vydr1,smaller,349,115,379707,stimuli/9-Congruent.jpg,9,congruent,m,right,m,TRUE,1,496,see how size affects our perception,no
raccoon,p0c3y7vydr1,smaller,352,116,381363,stimuli/3-Congruent.jpg,3,congruent,m,right,m,TRUE,1,468,see how size affects our perception,no
raccoon,p0c3y7vydr1,smaller,355,117,383011,stimuli/1-Inongruent.jpg,1,incongruent,z,left,z,TRUE,1,445,see how size affects our perception,no
raccoon,p0c3y7vydr1,smaller,358,118,384819,stimuli/8-Inongruent.jpg,8,incongruent,z,left,z,TRUE,1,652,see how size affects our perception,no
raccoon,p0c3y7vydr1,smaller,361,119,386539,stimuli/20-Inongruent.jpg,20,incongruent,z,left,z,TRUE,1,553,see how size affects our perception,no
raccoon,p0c3y7vydr1,smaller,364,120,388531,stimuli/19-Congruent.jpg,19,congruent,m,right,m,TRUE,1,821,see how size affects our perception,no
raccoon,p0c3y7vydr1,smaller,367,121,390131,stimuli/35-Inongruent.jpg,35,incongruent,z,left,z,TRUE,1,408,see how size affects our perception,no
raccoon,p0c3y7vydr1,smaller,370,122,391731,stimuli/26-Congruent.jpg,26,congruent,m,right,m,TRUE,1,414,see how size affects our perception,no
raccoon,p0c3y7vydr1,smaller,373,123,393443,stimuli/28-Congruent.jpg,28,congruent,m,right,m,TRUE,1,512,see how size affects our perception,no
raccoon,p0c3y7vydr1,smaller,376,124,395059,stimuli/7-Congruent.jpg,7,congruent,m,right,m,TRUE,1,421,see how size affects our perception,no
raccoon,p0c3y7vydr1,smaller,379,125,396699,stimuli/34-Inongruent.jpg,34,incongruent,z,left,z,TRUE,1,442,see how size affects our perception,no
raccoon,p0c3y7vydr1,smaller,382,126,398411,stimuli/33-Inongruent.jpg,33,incongruent,z,left,z,TRUE,1,539,see how size affects our perception,no
raccoon,p0c3y7vydr1,smaller,385,127,399859,stimuli/25-Congruent.jpg,25,congruent,m,right,m,TRUE,1,259,see how size affects our perception,no
raccoon,p0c3y7vydr1,smaller,388,128,401811,stimuli/36-Inongruent.jpg,36,incongruent,z,left,z,TRUE,1,737,see how size affects our perception,no
raccoon,p0c3y7vydr1,smaller,391,129,403731,stimuli/27-Congruent.jpg,27,congruent,m,right,m,TRUE,1,742,see how size affects our perception,no
raccoon,p0c3y7vydr1,smaller,394,130,405379,stimuli/9-Congruent.jpg,9,congruent,m,right,m,TRUE,1,450,see how size affects our perception,no
raccoon,p0c3y7vydr1,smaller,397,131,406987,stimuli/4-Inongruent.jpg,4,incongruent,z,left,z,TRUE,1,424,see how size affects our perception,no
raccoon,p0c3y7vydr1,smaller,400,132,408547,stimuli/20-Congruent.jpg,20,congruent,m,right,m,TRUE,1,373,see how size affects our perception,no
raccoon,p0c3y7vydr1,smaller,403,133,410139,stimuli/10-Congruent.jpg,10,congruent,m,right,m,TRUE,1,394,see how size affects our perception,no
raccoon,p0c3y7vydr1,smaller,406,134,411731,stimuli/7-Inongruent.jpg,7,incongruent,z,left,z,TRUE,1,390,see how size affects our perception,no
raccoon,p0c3y7vydr1,smaller,409,135,413427,stimuli/30-Inongruent.jpg,30,incongruent,z,left,z,TRUE,1,492,see how size affects our perception,no
raccoon,p0c3y7vydr1,smaller,412,136,415035,stimuli/16-Congruent.jpg,16,congruent,m,right,m,TRUE,1,420,see how size affects our perception,no
raccoon,p0c3y7vydr1,smaller,415,137,416739,stimuli/5-Congruent.jpg,5,congruent,m,right,m,TRUE,1,510,see how size affects our perception,no
raccoon,p0c3y7vydr1,smaller,418,138,418299,stimuli/29-Inongruent.jpg,29,incongruent,z,left,z,TRUE,1,344,see how size affects our perception,no
raccoon,p0c3y7vydr1,smaller,421,139,419891,stimuli/32-Inongruent.jpg,32,incongruent,z,left,z,TRUE,1,395,see how size affects our perception,no
raccoon,p0c3y7vydr1,smaller,424,140,421395,stimuli/15-Inongruent.jpg,15,incongruent,z,left,z,TRUE,1,311,see how size affects our perception,no
raccoon,p0c3y7vydr1,smaller,427,141,422979,stimuli/3-Inongruent.jpg,3,incongruent,z,left,z,TRUE,1,392,see how size affects our perception,no
raccoon,p0c3y7vydr1,smaller,430,142,424571,stimuli/22-Inongruent.jpg,22,incongruent,z,left,z,TRUE,1,323,see how size affects our perception,no
raccoon,p0c3y7vydr1,smaller,433,143,426155,stimuli/1-Inongruent.jpg,1,incongruent,z,left,z,TRUE,1,396,see how size affects our perception,no
raccoon,p0c3y7vydr1,smaller,436,144,427779,stimuli/30-Congruent.jpg,30,congruent,m,right,m,TRUE,1,452,see how size affects our perception,no
llama,p0uwu2pmdrx,smaller,7,1,18521,stimuli/36-Inongruent.jpg,36,incongruent,z,left,z,TRUE,1,581,how we percieve size,no
llama,p0uwu2pmdrx,smaller,10,2,21219,stimuli/6-Inongruent.jpg,6,incongruent,z,left,z,TRUE,1,790,how we percieve size,no
llama,p0uwu2pmdrx,smaller,13,3,23888,stimuli/32-Congruent.jpg,32,congruent,m,right,m,TRUE,1,762,how we percieve size,no
llama,p0uwu2pmdrx,smaller,16,4,26341,stimuli/16-Congruent.jpg,16,congruent,m,right,m,TRUE,1,547,how we percieve size,no
llama,p0uwu2pmdrx,smaller,19,5,28880,stimuli/5-Congruent.jpg,5,congruent,m,right,m,TRUE,1,634,how we percieve size,no
llama,p0uwu2pmdrx,smaller,22,6,31342,stimuli/15-Inongruent.jpg,15,incongruent,z,left,z,TRUE,1,556,how we percieve size,no
llama,p0uwu2pmdrx,smaller,25,7,34093,stimuli/5-Congruent.jpg,5,congruent,m,right,m,TRUE,1,846,how we percieve size,no
llama,p0uwu2pmdrx,smaller,28,8,36500,stimuli/4-Inongruent.jpg,4,incongruent,z,left,z,TRUE,1,501,how we percieve size,no
llama,p0uwu2pmdrx,smaller,31,9,38842,stimuli/34-Congruent.jpg,34,congruent,m,right,m,TRUE,1,436,how we percieve size,no
llama,p0uwu2pmdrx,smaller,34,10,42125,stimuli/18-Congruent.jpg,18,congruent,m,right,m,TRUE,1,1377,how we percieve size,no
llama,p0uwu2pmdrx,smaller,37,11,44665,stimuli/14-Inongruent.jpg,14,incongruent,z,left,z,TRUE,1,633,how we percieve size,no
llama,p0uwu2pmdrx,smaller,40,12,47562,stimuli/18-Congruent.jpg,18,congruent,m,right,m,TRUE,1,991,how we percieve size,no
llama,p0uwu2pmdrx,smaller,43,13,50076,stimuli/11-Inongruent.jpg,11,incongruent,z,left,z,TRUE,1,607,how we percieve size,no
llama,p0uwu2pmdrx,smaller,46,14,52469,stimuli/14-Congruent.jpg,14,congruent,m,right,m,TRUE,1,488,how we percieve size,no
llama,p0uwu2pmdrx,smaller,49,15,54805,stimuli/4-Inongruent.jpg,4,incongruent,z,left,z,TRUE,1,431,how we percieve size,no
llama,p0uwu2pmdrx,smaller,52,16,57447,stimuli/10-Congruent.jpg,10,congruent,m,right,m,TRUE,1,736,how we percieve size,no
llama,p0uwu2pmdrx,smaller,55,17,59951,stimuli/3-Inongruent.jpg,3,incongruent,z,left,z,TRUE,1,598,how we percieve size,no
llama,p0uwu2pmdrx,smaller,58,18,62418,stimuli/27-Inongruent.jpg,27,incongruent,z,left,z,TRUE,1,561,how we percieve size,no
llama,p0uwu2pmdrx,smaller,61,19,64808,stimuli/5-Inongruent.jpg,5,incongruent,z,left,z,TRUE,1,485,how we percieve size,no
llama,p0uwu2pmdrx,smaller,64,20,67547,stimuli/14-Inongruent.jpg,14,incongruent,z,left,z,TRUE,1,832,how we percieve size,no
llama,p0uwu2pmdrx,smaller,67,21,88647,stimuli/17-Inongruent.jpg,17,incongruent,z,left,z,TRUE,1,19193,how we percieve size,no
llama,p0uwu2pmdrx,smaller,70,22,96955,stimuli/27-Congruent.jpg,27,congruent,m,right,m,TRUE,1,6403,how we percieve size,no
llama,p0uwu2pmdrx,smaller,73,23,111605,stimuli/11-Inongruent.jpg,11,incongruent,z,left,z,TRUE,1,12745,how we percieve size,no
llama,p0uwu2pmdrx,smaller,76,24,114882,stimuli/7-Congruent.jpg,7,congruent,m,right,m,TRUE,1,1371,how we percieve size,no
llama,p0uwu2pmdrx,smaller,79,25,121255,stimuli/15-Inongruent.jpg,15,incongruent,z,left,z,TRUE,1,4468,how we percieve size,no
llama,p0uwu2pmdrx,smaller,82,26,123700,stimuli/15-Congruent.jpg,15,congruent,m,right,m,TRUE,1,538,how we percieve size,no
llama,p0uwu2pmdrx,smaller,85,27,126111,stimuli/35-Congruent.jpg,35,congruent,m,right,m,TRUE,1,505,how we percieve size,no
llama,p0uwu2pmdrx,smaller,88,28,128407,stimuli/26-Inongruent.jpg,26,incongruent,z,left,z,TRUE,1,390,how we percieve size,no
llama,p0uwu2pmdrx,smaller,91,29,130803,stimuli/1-Congruent.jpg,1,congruent,m,right,m,TRUE,1,488,how we percieve size,no
llama,p0uwu2pmdrx,smaller,94,30,133201,stimuli/26-Congruent.jpg,26,congruent,m,right,m,TRUE,1,492,how we percieve size,no
llama,p0uwu2pmdrx,smaller,97,31,136052,stimuli/7-Congruent.jpg,7,congruent,m,right,m,TRUE,1,944,how we percieve size,no
llama,p0uwu2pmdrx,smaller,100,32,138562,stimuli/15-Congruent.jpg,15,congruent,m,right,m,TRUE,1,604,how we percieve size,no
llama,p0uwu2pmdrx,smaller,103,33,140948,stimuli/35-Congruent.jpg,35,congruent,m,right,m,TRUE,1,480,how we percieve size,no
llama,p0uwu2pmdrx,smaller,106,34,143259,stimuli/7-Inongruent.jpg,7,incongruent,m,left,z,FALSE,0,406,how we percieve size,no
llama,p0uwu2pmdrx,smaller,109,35,146515,stimuli/13-Congruent.jpg,13,congruent,m,right,m,TRUE,1,454,how we percieve size,no
llama,p0uwu2pmdrx,smaller,112,36,149542,stimuli/17-Congruent.jpg,17,congruent,m,right,m,TRUE,1,1121,how we percieve size,no
llama,p0uwu2pmdrx,smaller,115,37,151907,stimuli/33-Congruent.jpg,33,congruent,m,right,m,TRUE,1,459,how we percieve size,no
llama,p0uwu2pmdrx,smaller,118,38,154244,stimuli/8-Congruent.jpg,8,congruent,m,right,m,TRUE,1,432,how we percieve size,no
llama,p0uwu2pmdrx,smaller,121,39,156565,stimuli/9-Inongruent.jpg,9,incongruent,z,left,z,TRUE,1,416,how we percieve size,no
llama,p0uwu2pmdrx,smaller,124,40,159007,stimuli/28-Congruent.jpg,28,congruent,m,right,m,TRUE,1,534,how we percieve size,no
llama,p0uwu2pmdrx,smaller,127,41,161422,stimuli/25-Congruent.jpg,25,congruent,m,right,m,TRUE,1,509,how we percieve size,no
llama,p0uwu2pmdrx,smaller,130,42,177522,stimuli/11-Congruent.jpg,11,congruent,m,right,m,TRUE,1,14193,how we percieve size,no
llama,p0uwu2pmdrx,smaller,133,43,179985,stimuli/28-Inongruent.jpg,28,incongruent,z,left,z,TRUE,1,558,how we percieve size,no
llama,p0uwu2pmdrx,smaller,136,44,197653,stimuli/33-Inongruent.jpg,33,incongruent,z,left,z,TRUE,1,15762,how we percieve size,no
llama,p0uwu2pmdrx,smaller,139,45,200008,stimuli/3-Congruent.jpg,3,congruent,m,right,m,TRUE,1,447,how we percieve size,no
llama,p0uwu2pmdrx,smaller,142,46,202309,stimuli/13-Congruent.jpg,13,congruent,m,right,m,TRUE,1,398,how we percieve size,no
llama,p0uwu2pmdrx,smaller,145,47,204585,stimuli/2-Congruent.jpg,2,congruent,m,right,m,TRUE,1,370,how we percieve size,no
llama,p0uwu2pmdrx,smaller,148,48,206898,stimuli/24-Inongruent.jpg,24,incongruent,z,left,z,TRUE,1,408,how we percieve size,no
llama,p0uwu2pmdrx,smaller,151,49,209165,stimuli/35-Inongruent.jpg,35,incongruent,z,left,z,TRUE,1,361,how we percieve size,no
llama,p0uwu2pmdrx,smaller,154,50,211369,stimuli/16-Congruent.jpg,16,congruent,m,right,m,TRUE,1,298,how we percieve size,no
llama,p0uwu2pmdrx,smaller,157,51,213762,stimuli/33-Inongruent.jpg,33,incongruent,z,left,z,TRUE,1,486,how we percieve size,no
llama,p0uwu2pmdrx,smaller,160,52,216061,stimuli/11-Congruent.jpg,11,congruent,m,right,m,TRUE,1,393,how we percieve size,no
llama,p0uwu2pmdrx,smaller,163,53,218653,stimuli/24-Congruent.jpg,24,congruent,m,right,m,TRUE,1,687,how we percieve size,no
llama,p0uwu2pmdrx,smaller,166,54,220903,stimuli/10-Inongruent.jpg,10,incongruent,z,left,z,TRUE,1,344,how we percieve size,no
llama,p0uwu2pmdrx,smaller,169,55,223193,stimuli/2-Inongruent.jpg,2,incongruent,z,left,z,TRUE,1,384,how we percieve size,no
llama,p0uwu2pmdrx,smaller,172,56,225464,stimuli/29-Congruent.jpg,29,congruent,m,right,m,TRUE,1,364,how we percieve size,no
llama,p0uwu2pmdrx,smaller,175,57,228261,stimuli/20-Inongruent.jpg,20,incongruent,z,left,z,TRUE,1,891,how we percieve size,no
llama,p0uwu2pmdrx,smaller,178,58,267190,stimuli/21-Inongruent.jpg,21,incongruent,z,left,z,TRUE,1,37022,how we percieve size,no
llama,p0uwu2pmdrx,smaller,181,59,269461,stimuli/5-Inongruent.jpg,5,incongruent,z,left,z,TRUE,1,368,how we percieve size,no
llama,p0uwu2pmdrx,smaller,184,60,271682,stimuli/22-Congruent.jpg,22,congruent,m,right,m,TRUE,1,316,how we percieve size,no
llama,p0uwu2pmdrx,smaller,187,61,274027,stimuli/34-Congruent.jpg,34,congruent,m,right,m,TRUE,1,442,how we percieve size,no
llama,p0uwu2pmdrx,smaller,190,62,276319,stimuli/21-Congruent.jpg,21,congruent,m,right,m,TRUE,1,386,how we percieve size,no
llama,p0uwu2pmdrx,smaller,193,63,278618,stimuli/18-Inongruent.jpg,18,incongruent,z,left,z,TRUE,1,394,how we percieve size,no
llama,p0uwu2pmdrx,smaller,196,64,280852,stimuli/19-Inongruent.jpg,19,incongruent,z,left,z,TRUE,1,328,how we percieve size,no
llama,p0uwu2pmdrx,smaller,199,65,283103,stimuli/30-Congruent.jpg,30,congruent,m,right,m,TRUE,1,345,how we percieve size,no
llama,p0uwu2pmdrx,smaller,202,66,285996,stimuli/36-Congruent.jpg,36,congruent,m,right,m,TRUE,1,987,how we percieve size,no
llama,p0uwu2pmdrx,smaller,205,67,288266,stimuli/1-Inongruent.jpg,1,incongruent,z,left,z,TRUE,1,365,how we percieve size,no
llama,p0uwu2pmdrx,smaller,208,68,290543,stimuli/12-Congruent.jpg,12,congruent,m,right,m,TRUE,1,372,how we percieve size,no
llama,p0uwu2pmdrx,smaller,211,69,292875,stimuli/32-Inongruent.jpg,32,incongruent,z,left,z,TRUE,1,425,how we percieve size,no
llama,p0uwu2pmdrx,smaller,214,70,295211,stimuli/22-Inongruent.jpg,22,incongruent,z,left,z,TRUE,1,431,how we percieve size,no
llama,p0uwu2pmdrx,smaller,217,71,297709,stimuli/3-Congruent.jpg,3,congruent,m,right,m,TRUE,1,592,how we percieve size,no
llama,p0uwu2pmdrx,smaller,220,72,300508,stimuli/36-Congruent.jpg,36,congruent,m,right,m,TRUE,1,893,how we percieve size,no
llama,p0uwu2pmdrx,smaller,223,73,302820,stimuli/13-Inongruent.jpg,13,incongruent,z,left,z,TRUE,1,406,how we percieve size,no
llama,p0uwu2pmdrx,smaller,226,74,305099,stimuli/28-Inongruent.jpg,28,incongruent,z,left,z,TRUE,1,375,how we percieve size,no
llama,p0uwu2pmdrx,smaller,229,75,307512,stimuli/25-Inongruent.jpg,25,incongruent,z,left,z,TRUE,1,507,how we percieve size,no
llama,p0uwu2pmdrx,smaller,232,76,309761,stimuli/23-Congruent.jpg,23,congruent,m,right,m,TRUE,1,343,how we percieve size,no
llama,p0uwu2pmdrx,smaller,235,77,312191,stimuli/1-Congruent.jpg,1,congruent,m,right,m,TRUE,1,523,how we percieve size,no
llama,p0uwu2pmdrx,smaller,238,78,314470,stimuli/23-Inongruent.jpg,23,incongruent,z,left,z,TRUE,1,373,how we percieve size,no
llama,p0uwu2pmdrx,smaller,241,79,316736,stimuli/20-Congruent.jpg,20,congruent,m,right,m,TRUE,1,362,how we percieve size,no
llama,p0uwu2pmdrx,smaller,244,80,319282,stimuli/27-Congruent.jpg,27,congruent,m,right,m,TRUE,1,640,how we percieve size,no
llama,p0uwu2pmdrx,smaller,247,81,321590,stimuli/14-Congruent.jpg,14,congruent,m,right,m,TRUE,1,403,how we percieve size,no
llama,p0uwu2pmdrx,smaller,250,82,323977,stimuli/2-Inongruent.jpg,2,incongruent,z,left,z,TRUE,1,483,how we percieve size,no
llama,p0uwu2pmdrx,smaller,253,83,327023,stimuli/34-Inongruent.jpg,34,incongruent,z,left,z,TRUE,1,1140,how we percieve size,no
llama,p0uwu2pmdrx,smaller,256,84,341894,stimuli/12-Congruent.jpg,12,congruent,m,right,m,TRUE,1,12965,how we percieve size,no
llama,p0uwu2pmdrx,smaller,259,85,344914,stimuli/29-Inongruent.jpg,29,incongruent,z,left,z,TRUE,1,1114,how we percieve size,no
llama,p0uwu2pmdrx,smaller,262,86,347195,stimuli/21-Inongruent.jpg,21,incongruent,m,left,z,FALSE,0,376,how we percieve size,no
llama,p0uwu2pmdrx,smaller,265,87,349308,stimuli/19-Inongruent.jpg,19,incongruent,z,left,z,TRUE,1,480,how we percieve size,no
llama,p0uwu2pmdrx,smaller,268,88,351865,stimuli/31-Congruent.jpg,31,congruent,m,right,m,TRUE,1,650,how we percieve size,no
llama,p0uwu2pmdrx,smaller,271,89,354313,stimuli/29-Inongruent.jpg,29,incongruent,z,left,z,TRUE,1,543,how we percieve size,no
llama,p0uwu2pmdrx,smaller,274,90,356738,stimuli/36-Inongruent.jpg,36,incongruent,z,left,z,TRUE,1,520,how we percieve size,no
llama,p0uwu2pmdrx,smaller,277,91,359084,stimuli/6-Congruent.jpg,6,congruent,m,right,m,TRUE,1,441,how we percieve size,no
llama,p0uwu2pmdrx,smaller,280,92,361359,stimuli/17-Inongruent.jpg,17,incongruent,z,left,z,TRUE,1,369,how we percieve size,no
llama,p0uwu2pmdrx,smaller,283,93,363693,stimuli/16-Inongruent.jpg,16,incongruent,z,left,z,TRUE,1,427,how we percieve size,no
llama,p0uwu2pmdrx,smaller,286,94,366051,stimuli/10-Inongruent.jpg,10,incongruent,z,left,z,TRUE,1,454,how we percieve size,no
llama,p0uwu2pmdrx,smaller,289,95,368433,stimuli/30-Inongruent.jpg,30,incongruent,z,left,z,TRUE,1,476,how we percieve size,no
llama,p0uwu2pmdrx,smaller,292,96,371033,stimuli/20-Inongruent.jpg,20,incongruent,z,left,z,TRUE,1,695,how we percieve size,no
llama,p0uwu2pmdrx,smaller,295,97,373703,stimuli/26-Inongruent.jpg,26,incongruent,z,left,z,TRUE,1,765,how we percieve size,no
llama,p0uwu2pmdrx,smaller,298,98,376157,stimuli/26-Congruent.jpg,26,congruent,m,right,m,TRUE,1,549,how we percieve size,no
llama,p0uwu2pmdrx,smaller,301,99,379544,stimuli/17-Congruent.jpg,17,congruent,m,right,m,TRUE,1,1482,how we percieve size,no
llama,p0uwu2pmdrx,smaller,304,100,381882,stimuli/3-Inongruent.jpg,3,incongruent,z,left,z,TRUE,1,431,how we percieve size,no
llama,p0uwu2pmdrx,smaller,307,101,384259,stimuli/19-Congruent.jpg,19,congruent,m,right,m,TRUE,1,470,how we percieve size,no
llama,p0uwu2pmdrx,smaller,310,102,386582,stimuli/33-Congruent.jpg,33,congruent,m,right,m,TRUE,1,417,how we percieve size,no
llama,p0uwu2pmdrx,smaller,313,103,389171,stimuli/8-Congruent.jpg,8,congruent,m,right,m,TRUE,1,683,how we percieve size,no
llama,p0uwu2pmdrx,smaller,316,104,391606,stimuli/2-Congruent.jpg,2,congruent,m,right,m,TRUE,1,529,how we percieve size,no
llama,p0uwu2pmdrx,smaller,319,105,393930,stimuli/35-Inongruent.jpg,35,incongruent,z,left,z,TRUE,1,419,how we percieve size,no
llama,p0uwu2pmdrx,smaller,322,106,396770,stimuli/31-Inongruent.jpg,31,incongruent,z,left,z,TRUE,1,934,how we percieve size,no
llama,p0uwu2pmdrx,smaller,325,107,399145,stimuli/27-Inongruent.jpg,27,incongruent,z,left,z,TRUE,1,469,how we percieve size,no
llama,p0uwu2pmdrx,smaller,328,108,401429,stimuli/22-Inongruent.jpg,22,incongruent,z,left,z,TRUE,1,379,how we percieve size,no
llama,p0uwu2pmdrx,smaller,331,109,403796,stimuli/6-Congruent.jpg,6,congruent,m,right,m,TRUE,1,460,how we percieve size,no
llama,p0uwu2pmdrx,smaller,334,110,406061,stimuli/7-Inongruent.jpg,7,incongruent,z,left,z,TRUE,1,359,how we percieve size,no
llama,p0uwu2pmdrx,smaller,337,111,408352,stimuli/31-Congruent.jpg,31,congruent,m,right,m,TRUE,1,385,how we percieve size,no
llama,p0uwu2pmdrx,smaller,340,112,410655,stimuli/8-Inongruent.jpg,8,incongruent,z,left,z,TRUE,1,399,how we percieve size,no
llama,p0uwu2pmdrx,smaller,343,113,412931,stimuli/25-Congruent.jpg,25,congruent,m,right,m,TRUE,1,369,how we percieve size,no
llama,p0uwu2pmdrx,smaller,346,114,415240,stimuli/12-Inongruent.jpg,12,incongruent,z,left,z,TRUE,1,402,how we percieve size,no
llama,p0uwu2pmdrx,smaller,349,115,417546,stimuli/6-Inongruent.jpg,6,incongruent,z,left,z,TRUE,1,400,how we percieve size,no
llama,p0uwu2pmdrx,smaller,352,116,419792,stimuli/23-Inongruent.jpg,23,incongruent,z,left,z,TRUE,1,340,how we percieve size,no
llama,p0uwu2pmdrx,smaller,355,117,422085,stimuli/23-Congruent.jpg,23,congruent,m,right,m,TRUE,1,388,how we percieve size,no
llama,p0uwu2pmdrx,smaller,358,118,424434,stimuli/13-Inongruent.jpg,13,incongruent,z,left,z,TRUE,1,443,how we percieve size,no
llama,p0uwu2pmdrx,smaller,361,119,426816,stimuli/32-Inongruent.jpg,32,incongruent,z,left,z,TRUE,1,477,how we percieve size,no
llama,p0uwu2pmdrx,smaller,364,120,429107,stimuli/22-Congruent.jpg,22,congruent,m,right,m,TRUE,1,384,how we percieve size,no
llama,p0uwu2pmdrx,smaller,367,121,431470,stimuli/24-Congruent.jpg,24,congruent,z,right,m,FALSE,0,459,how we percieve size,no
llama,p0uwu2pmdrx,smaller,370,122,433648,stimuli/1-Inongruent.jpg,1,incongruent,z,left,z,TRUE,1,453,how we percieve size,no
llama,p0uwu2pmdrx,smaller,373,123,436117,stimuli/30-Inongruent.jpg,30,incongruent,z,left,z,TRUE,1,562,how we percieve size,no
llama,p0uwu2pmdrx,smaller,376,124,438514,stimuli/20-Congruent.jpg,20,congruent,m,right,m,TRUE,1,493,how we percieve size,no
llama,p0uwu2pmdrx,smaller,379,125,440854,stimuli/10-Congruent.jpg,10,congruent,m,right,m,TRUE,1,434,how we percieve size,no
llama,p0uwu2pmdrx,smaller,382,126,443481,stimuli/4-Congruent.jpg,4,congruent,m,right,m,TRUE,1,721,how we percieve size,no
llama,p0uwu2pmdrx,smaller,385,127,445816,stimuli/29-Congruent.jpg,29,congruent,m,right,m,TRUE,1,429,how we percieve size,no
llama,p0uwu2pmdrx,smaller,388,128,448171,stimuli/9-Congruent.jpg,9,congruent,m,right,m,TRUE,1,450,how we percieve size,no
llama,p0uwu2pmdrx,smaller,391,129,450515,stimuli/4-Congruent.jpg,4,congruent,m,right,m,TRUE,1,438,how we percieve size,no
llama,p0uwu2pmdrx,smaller,394,130,453142,stimuli/18-Inongruent.jpg,18,incongruent,z,left,z,TRUE,1,722,how we percieve size,no
llama,p0uwu2pmdrx,smaller,397,131,455507,stimuli/9-Inongruent.jpg,9,incongruent,z,left,z,TRUE,1,460,how we percieve size,no
llama,p0uwu2pmdrx,smaller,400,132,458234,stimuli/12-Inongruent.jpg,12,incongruent,z,left,z,TRUE,1,822,how we percieve size,no
llama,p0uwu2pmdrx,smaller,403,133,460721,stimuli/30-Congruent.jpg,30,congruent,m,right,m,TRUE,1,582,how we percieve size,no
llama,p0uwu2pmdrx,smaller,406,134,463015,stimuli/8-Inongruent.jpg,8,incongruent,z,left,z,TRUE,1,387,how we percieve size,no
llama,p0uwu2pmdrx,smaller,409,135,465353,stimuli/9-Congruent.jpg,9,congruent,m,right,m,TRUE,1,431,how we percieve size,no
llama,p0uwu2pmdrx,smaller,412,136,467668,stimuli/24-Inongruent.jpg,24,incongruent,z,left,z,TRUE,1,408,how we percieve size,no
llama,p0uwu2pmdrx,smaller,415,137,470020,stimuli/28-Congruent.jpg,28,congruent,m,right,m,TRUE,1,447,how we percieve size,no
llama,p0uwu2pmdrx,smaller,418,138,472348,stimuli/31-Inongruent.jpg,31,incongruent,z,left,z,TRUE,1,425,how we percieve size,no
llama,p0uwu2pmdrx,smaller,421,139,474661,stimuli/32-Congruent.jpg,32,congruent,m,right,m,TRUE,1,408,how we percieve size,no
llama,p0uwu2pmdrx,smaller,424,140,476938,stimuli/21-Congruent.jpg,21,congruent,m,right,m,TRUE,1,372,how we percieve size,no
llama,p0uwu2pmdrx,smaller,427,141,479218,stimuli/19-Congruent.jpg,19,congruent,m,right,m,TRUE,1,374,how we percieve size,no
llama,p0uwu2pmdrx,smaller,430,142,481566,stimuli/16-Inongruent.jpg,16,incongruent,z,left,z,TRUE,1,444,how we percieve size,no
llama,p0uwu2pmdrx,smaller,433,143,483940,stimuli/25-Inongruent.jpg,25,incongruent,z,left,z,TRUE,1,469,how we percieve size,no
llama,p0uwu2pmdrx,smaller,436,144,486338,stimuli/34-Inongruent.jpg,34,incongruent,z,left,z,TRUE,1,492,how we percieve size,no
2341,p159pw1yfrp,bigger,7,1,32917,stimuli/29-Inongruent.jpg,29,incongruent,m,right,m,TRUE,1,2009,size comparision recognition timed,NA
2341,p159pw1yfrp,bigger,10,2,36517,stimuli/17-Congruent.jpg,17,congruent,z,left,z,TRUE,1,1693,size comparision recognition timed,NA
2341,p159pw1yfrp,bigger,13,3,39268,stimuli/35-Inongruent.jpg,35,incongruent,m,right,m,TRUE,1,844,size comparision recognition timed,NA
2341,p159pw1yfrp,bigger,16,4,42157,stimuli/27-Congruent.jpg,27,congruent,z,left,z,TRUE,1,984,size comparision recognition timed,NA
2341,p159pw1yfrp,bigger,19,5,45447,stimuli/1-Congruent.jpg,1,congruent,z,left,z,TRUE,1,1386,size comparision recognition timed,NA
2341,p159pw1yfrp,bigger,22,6,48575,stimuli/1-Congruent.jpg,1,congruent,z,left,z,TRUE,1,1223,size comparision recognition timed,NA
2341,p159pw1yfrp,bigger,25,7,51378,stimuli/13-Inongruent.jpg,13,incongruent,m,right,m,TRUE,1,899,size comparision recognition timed,NA
2341,p159pw1yfrp,bigger,28,8,54558,stimuli/31-Inongruent.jpg,31,incongruent,m,right,m,TRUE,1,1276,size comparision recognition timed,NA
2341,p159pw1yfrp,bigger,31,9,57349,stimuli/8-Congruent.jpg,8,congruent,z,left,z,TRUE,1,886,size comparision recognition timed,NA
2341,p159pw1yfrp,bigger,34,10,60171,stimuli/32-Inongruent.jpg,32,incongruent,m,right,m,TRUE,1,916,size comparision recognition timed,NA
2341,p159pw1yfrp,bigger,37,11,62768,stimuli/16-Inongruent.jpg,16,incongruent,m,right,m,TRUE,1,691,size comparision recognition timed,NA
2341,p159pw1yfrp,bigger,40,12,65942,stimuli/30-Inongruent.jpg,30,incongruent,m,right,m,TRUE,1,1271,size comparision recognition timed,NA
2341,p159pw1yfrp,bigger,43,13,68454,stimuli/19-Inongruent.jpg,19,incongruent,m,right,m,TRUE,1,606,size comparision recognition timed,NA
2341,p159pw1yfrp,bigger,46,14,71089,stimuli/27-Inongruent.jpg,27,incongruent,m,right,m,TRUE,1,730,size comparision recognition timed,NA
2341,p159pw1yfrp,bigger,49,15,73661,stimuli/5-Congruent.jpg,5,congruent,z,left,z,TRUE,1,666,size comparision recognition timed,NA
2341,p159pw1yfrp,bigger,52,16,76398,stimuli/20-Congruent.jpg,20,congruent,z,left,z,TRUE,1,833,size comparision recognition timed,NA
2341,p159pw1yfrp,bigger,55,17,79253,stimuli/14-Inongruent.jpg,14,incongruent,m,right,m,TRUE,1,949,size comparision recognition timed,NA
2341,p159pw1yfrp,bigger,58,18,81938,stimuli/6-Inongruent.jpg,6,incongruent,m,right,m,TRUE,1,780,size comparision recognition timed,NA
2341,p159pw1yfrp,bigger,61,19,84737,stimuli/35-Congruent.jpg,35,congruent,z,left,z,TRUE,1,893,size comparision recognition timed,NA
2341,p159pw1yfrp,bigger,64,20,87416,stimuli/23-Inongruent.jpg,23,incongruent,m,right,m,TRUE,1,774,size comparision recognition timed,NA
2341,p159pw1yfrp,bigger,67,21,90244,stimuli/19-Congruent.jpg,19,congruent,z,left,z,TRUE,1,923,size comparision recognition timed,NA
2341,p159pw1yfrp,bigger,70,22,94140,stimuli/7-Inongruent.jpg,7,incongruent,m,right,m,TRUE,1,1992,size comparision recognition timed,NA
2341,p159pw1yfrp,bigger,73,23,97013,stimuli/8-Inongruent.jpg,8,incongruent,m,right,m,TRUE,1,969,size comparision recognition timed,NA
2341,p159pw1yfrp,bigger,76,24,99704,stimuli/8-Inongruent.jpg,8,incongruent,m,right,m,TRUE,1,784,size comparision recognition timed,NA
2341,p159pw1yfrp,bigger,79,25,102459,stimuli/6-Congruent.jpg,6,congruent,z,left,z,TRUE,1,851,size comparision recognition timed,NA
2341,p159pw1yfrp,bigger,82,26,105060,stimuli/15-Congruent.jpg,15,congruent,z,left,z,TRUE,1,696,size comparision recognition timed,NA
2341,p159pw1yfrp,bigger,85,27,107791,stimuli/14-Congruent.jpg,14,congruent,z,left,z,TRUE,1,826,size comparision recognition timed,NA
2341,p159pw1yfrp,bigger,88,28,110572,stimuli/2-Congruent.jpg,2,congruent,z,left,z,TRUE,1,876,size comparision recognition timed,NA
2341,p159pw1yfrp,bigger,91,29,113097,stimuli/24-Congruent.jpg,24,congruent,z,left,z,TRUE,1,620,size comparision recognition timed,NA
2341,p159pw1yfrp,bigger,94,30,117210,stimuli/1-Inongruent.jpg,1,incongruent,m,right,m,TRUE,1,2209,size comparision recognition timed,NA
2341,p159pw1yfrp,bigger,97,31,119792,stimuli/5-Inongruent.jpg,5,incongruent,m,right,m,TRUE,1,677,size comparision recognition timed,NA
2341,p159pw1yfrp,bigger,100,32,122393,stimuli/36-Congruent.jpg,36,congruent,z,left,z,TRUE,1,697,size comparision recognition timed,NA
2341,p159pw1yfrp,bigger,103,33,125232,stimuli/25-Inongruent.jpg,25,incongruent,m,right,m,TRUE,1,933,size comparision recognition timed,NA
2341,p159pw1yfrp,bigger,106,34,127978,stimuli/22-Congruent.jpg,22,congruent,z,left,z,TRUE,1,841,size comparision recognition timed,NA
2341,p159pw1yfrp,bigger,109,35,130690,stimuli/20-Inongruent.jpg,20,incongruent,m,right,m,TRUE,1,807,size comparision recognition timed,NA
2341,p159pw1yfrp,bigger,112,36,133759,stimuli/2-Inongruent.jpg,2,incongruent,m,right,m,TRUE,1,1163,size comparision recognition timed,NA
2341,p159pw1yfrp,bigger,115,37,136565,stimuli/29-Congruent.jpg,29,congruent,z,left,z,TRUE,1,902,size comparision recognition timed,NA
2341,p159pw1yfrp,bigger,118,38,139296,stimuli/18-Inongruent.jpg,18,incongruent,m,right,m,TRUE,1,826,size comparision recognition timed,NA
2341,p159pw1yfrp,bigger,121,39,142190,stimuli/21-Congruent.jpg,21,congruent,z,left,z,TRUE,1,989,size comparision recognition timed,NA
2341,p159pw1yfrp,bigger,124,40,144801,stimuli/33-Congruent.jpg,33,congruent,z,left,z,TRUE,1,704,size comparision recognition timed,NA
2341,p159pw1yfrp,bigger,127,41,147985,stimuli/10-Inongruent.jpg,10,incongruent,m,right,m,TRUE,1,1279,size comparision recognition timed,NA
2341,p159pw1yfrp,bigger,130,42,150644,stimuli/30-Congruent.jpg,30,congruent,z,left,z,TRUE,1,755,size comparision recognition timed,NA
2341,p159pw1yfrp,bigger,133,43,153269,stimuli/4-Inongruent.jpg,4,incongruent,m,right,m,TRUE,1,720,size comparision recognition timed,NA
2341,p159pw1yfrp,bigger,136,44,155845,stimuli/4-Congruent.jpg,4,congruent,z,left,z,TRUE,1,671,size comparision recognition timed,NA
2341,p159pw1yfrp,bigger,139,45,158434,stimuli/7-Congruent.jpg,7,congruent,z,left,z,TRUE,1,683,size comparision recognition timed,NA
2341,p159pw1yfrp,bigger,142,46,161342,stimuli/15-Inongruent.jpg,15,incongruent,m,right,m,TRUE,1,1003,size comparision recognition timed,NA
2341,p159pw1yfrp,bigger,145,47,164224,stimuli/2-Inongruent.jpg,2,incongruent,m,right,m,TRUE,1,977,size comparision recognition timed,NA
2341,p159pw1yfrp,bigger,148,48,166762,stimuli/17-Inongruent.jpg,17,incongruent,m,right,m,TRUE,1,634,size comparision recognition timed,NA
2341,p159pw1yfrp,bigger,151,49,169390,stimuli/11-Inongruent.jpg,11,incongruent,m,right,m,TRUE,1,722,size comparision recognition timed,NA
2341,p159pw1yfrp,bigger,154,50,172058,stimuli/8-Congruent.jpg,8,congruent,z,left,z,TRUE,1,766,size comparision recognition timed,NA
2341,p159pw1yfrp,bigger,157,51,174737,stimuli/28-Congruent.jpg,28,congruent,z,left,z,TRUE,1,776,size comparision recognition timed,NA
2341,p159pw1yfrp,bigger,160,52,177595,stimuli/34-Inongruent.jpg,34,incongruent,m,right,m,TRUE,1,953,size comparision recognition timed,NA
2341,p159pw1yfrp,bigger,163,53,180111,stimuli/7-Congruent.jpg,7,congruent,z,left,z,TRUE,1,612,size comparision recognition timed,NA
2341,p159pw1yfrp,bigger,166,54,182963,stimuli/24-Inongruent.jpg,24,incongruent,m,right,m,TRUE,1,947,size comparision recognition timed,NA
2341,p159pw1yfrp,bigger,169,55,185664,stimuli/22-Congruent.jpg,22,congruent,z,left,z,TRUE,1,797,size comparision recognition timed,NA
2341,p159pw1yfrp,bigger,172,56,188216,stimuli/31-Congruent.jpg,31,congruent,z,left,z,TRUE,1,647,size comparision recognition timed,NA
2341,p159pw1yfrp,bigger,175,57,191619,stimuli/20-Inongruent.jpg,20,incongruent,m,right,m,TRUE,1,1498,size comparision recognition timed,NA
2341,p159pw1yfrp,bigger,178,58,194097,stimuli/3-Inongruent.jpg,3,incongruent,m,right,m,TRUE,1,573,size comparision recognition timed,NA
2341,p159pw1yfrp,bigger,181,59,197165,stimuli/22-Inongruent.jpg,22,incongruent,m,right,m,TRUE,1,1163,size comparision recognition timed,NA
2341,p159pw1yfrp,bigger,184,60,200101,stimuli/16-Inongruent.jpg,16,incongruent,m,right,m,TRUE,1,1033,size comparision recognition timed,NA
2341,p159pw1yfrp,bigger,187,61,202810,stimuli/22-Inongruent.jpg,22,incongruent,m,right,m,TRUE,1,804,size comparision recognition timed,NA
2341,p159pw1yfrp,bigger,190,62,205386,stimuli/35-Congruent.jpg,35,congruent,z,left,z,TRUE,1,671,size comparision recognition timed,NA
2341,p159pw1yfrp,bigger,193,63,208528,stimuli/3-Congruent.jpg,3,congruent,z,left,z,TRUE,1,1238,size comparision recognition timed,NA
2341,p159pw1yfrp,bigger,196,64,211174,stimuli/36-Congruent.jpg,36,congruent,z,left,z,TRUE,1,742,size comparision recognition timed,NA
2341,p159pw1yfrp,bigger,199,65,214081,stimuli/33-Congruent.jpg,33,congruent,z,left,z,TRUE,1,1002,size comparision recognition timed,NA
2341,p159pw1yfrp,bigger,202,66,216623,stimuli/4-Congruent.jpg,4,congruent,z,left,z,TRUE,1,639,size comparision recognition timed,NA
2341,p159pw1yfrp,bigger,205,67,220169,stimuli/26-Inongruent.jpg,26,incongruent,m,right,m,TRUE,1,1641,size comparision recognition timed,NA
2341,p159pw1yfrp,bigger,208,68,223565,stimuli/32-Inongruent.jpg,32,incongruent,m,right,m,TRUE,1,1491,size comparision recognition timed,NA
2341,p159pw1yfrp,bigger,211,69,226982,stimuli/23-Congruent.jpg,23,congruent,z,left,z,TRUE,1,1512,size comparision recognition timed,NA
2341,p159pw1yfrp,bigger,214,70,230334,stimuli/9-Congruent.jpg,9,congruent,z,left,z,TRUE,1,1448,size comparision recognition timed,NA
2341,p159pw1yfrp,bigger,217,71,233180,stimuli/6-Inongruent.jpg,6,incongruent,m,right,m,TRUE,1,941,size comparision recognition timed,NA
2341,p159pw1yfrp,bigger,220,72,235733,stimuli/15-Congruent.jpg,15,congruent,z,left,z,TRUE,1,649,size comparision recognition timed,NA
2341,p159pw1yfrp,bigger,223,73,238422,stimuli/34-Congruent.jpg,34,congruent,z,left,z,TRUE,1,785,size comparision recognition timed,NA
2341,p159pw1yfrp,bigger,226,74,241821,stimuli/4-Inongruent.jpg,4,incongruent,z,right,m,FALSE,0,1496,size comparision recognition timed,NA
2341,p159pw1yfrp,bigger,229,75,250565,stimuli/31-Inongruent.jpg,31,incongruent,m,right,m,TRUE,1,2738,size comparision recognition timed,NA
2341,p159pw1yfrp,bigger,232,76,253188,stimuli/17-Congruent.jpg,17,congruent,z,left,z,TRUE,1,718,size comparision recognition timed,NA
2341,p159pw1yfrp,bigger,235,77,255799,stimuli/29-Congruent.jpg,29,congruent,z,left,z,TRUE,1,705,size comparision recognition timed,NA
2341,p159pw1yfrp,bigger,238,78,258750,stimuli/18-Inongruent.jpg,18,incongruent,m,right,m,TRUE,1,1047,size comparision recognition timed,NA
2341,p159pw1yfrp,bigger,241,79,262714,stimuli/14-Congruent.jpg,14,congruent,z,left,z,TRUE,1,2060,size comparision recognition timed,NA
2341,p159pw1yfrp,bigger,244,80,265441,stimuli/35-Inongruent.jpg,35,incongruent,m,right,m,TRUE,1,823,size comparision recognition timed,NA
2341,p159pw1yfrp,bigger,247,81,268733,stimuli/12-Congruent.jpg,12,congruent,z,left,z,TRUE,1,1388,size comparision recognition timed,NA
2341,p159pw1yfrp,bigger,250,82,271914,stimuli/5-Inongruent.jpg,5,incongruent,m,right,m,TRUE,1,1276,size comparision recognition timed,NA
2341,p159pw1yfrp,bigger,253,83,278107,stimuli/34-Inongruent.jpg,34,incongruent,m,right,m,TRUE,1,4287,size comparision recognition timed,NA
2341,p159pw1yfrp,bigger,256,84,280702,stimuli/34-Congruent.jpg,34,congruent,z,left,z,TRUE,1,690,size comparision recognition timed,NA
2341,p159pw1yfrp,bigger,259,85,283421,stimuli/28-Congruent.jpg,28,congruent,z,left,z,TRUE,1,815,size comparision recognition timed,NA
2341,p159pw1yfrp,bigger,262,86,286305,stimuli/19-Congruent.jpg,19,congruent,z,left,z,TRUE,1,978,size comparision recognition timed,NA
2341,p159pw1yfrp,bigger,265,87,291499,stimuli/10-Inongruent.jpg,10,incongruent,m,right,m,TRUE,1,3289,size comparision recognition timed,NA
2341,p159pw1yfrp,bigger,268,88,294472,stimuli/12-Inongruent.jpg,12,incongruent,m,right,m,TRUE,1,1069,size comparision recognition timed,NA
2341,p159pw1yfrp,bigger,271,89,298324,stimuli/33-Inongruent.jpg,33,incongruent,m,right,m,TRUE,1,1948,size comparision recognition timed,NA
2341,p159pw1yfrp,bigger,274,90,301408,stimuli/21-Inongruent.jpg,21,incongruent,m,right,m,TRUE,1,1179,size comparision recognition timed,NA
2341,p159pw1yfrp,bigger,277,91,303972,stimuli/10-Congruent.jpg,10,congruent,z,left,z,TRUE,1,659,size comparision recognition timed,NA
2341,p159pw1yfrp,bigger,280,92,306618,stimuli/7-Inongruent.jpg,7,incongruent,m,right,m,TRUE,1,741,size comparision recognition timed,NA
2341,p159pw1yfrp,bigger,283,93,309375,stimuli/23-Inongruent.jpg,23,incongruent,m,right,m,TRUE,1,853,size comparision recognition timed,NA
2341,p159pw1yfrp,bigger,286,94,312493,stimuli/13-Inongruent.jpg,13,incongruent,m,right,m,TRUE,1,1215,size comparision recognition timed,NA
2341,p159pw1yfrp,bigger,289,95,316231,stimuli/29-Inongruent.jpg,29,incongruent,m,right,m,TRUE,1,1833,size comparision recognition timed,NA
2341,p159pw1yfrp,bigger,292,96,319565,stimuli/3-Congruent.jpg,3,congruent,z,left,z,TRUE,1,1430,size comparision recognition timed,NA
2341,p159pw1yfrp,bigger,295,97,322717,stimuli/12-Inongruent.jpg,12,incongruent,m,right,m,TRUE,1,1248,size comparision recognition timed,NA
2341,p159pw1yfrp,bigger,298,98,325460,stimuli/13-Congruent.jpg,13,congruent,z,left,z,TRUE,1,838,size comparision recognition timed,NA
2341,p159pw1yfrp,bigger,301,99,328623,stimuli/10-Congruent.jpg,10,congruent,z,left,z,TRUE,1,1259,size comparision recognition timed,NA
2341,p159pw1yfrp,bigger,304,100,331885,stimuli/12-Congruent.jpg,12,congruent,z,left,z,TRUE,1,1357,size comparision recognition timed,NA
2341,p159pw1yfrp,bigger,307,101,334767,stimuli/18-Congruent.jpg,18,congruent,z,left,z,TRUE,1,977,size comparision recognition timed,NA
2341,p159pw1yfrp,bigger,310,102,337522,stimuli/26-Inongruent.jpg,26,incongruent,m,right,m,TRUE,1,851,size comparision recognition timed,NA
2341,p159pw1yfrp,bigger,313,103,340339,stimuli/36-Inongruent.jpg,36,incongruent,m,right,m,TRUE,1,912,size comparision recognition timed,NA
2341,p159pw1yfrp,bigger,316,104,344033,stimuli/19-Inongruent.jpg,19,incongruent,m,right,m,TRUE,1,1789,size comparision recognition timed,NA
2341,p159pw1yfrp,bigger,319,105,347186,stimuli/21-Inongruent.jpg,21,incongruent,z,right,m,FALSE,0,1249,size comparision recognition timed,NA
2341,p159pw1yfrp,bigger,322,106,354048,stimuli/26-Congruent.jpg,26,congruent,z,left,z,TRUE,1,856,size comparision recognition timed,NA
2341,p159pw1yfrp,bigger,325,107,357055,stimuli/9-Congruent.jpg,9,congruent,z,left,z,TRUE,1,1102,size comparision recognition timed,NA
2341,p159pw1yfrp,bigger,328,108,361092,stimuli/23-Congruent.jpg,23,congruent,z,left,z,TRUE,1,2132,size comparision recognition timed,NA
2341,p159pw1yfrp,bigger,331,109,364301,stimuli/9-Inongruent.jpg,9,incongruent,m,right,m,TRUE,1,1305,size comparision recognition timed,NA
2341,p159pw1yfrp,bigger,334,110,367262,stimuli/26-Congruent.jpg,26,congruent,z,left,z,TRUE,1,1056,size comparision recognition timed,NA
2341,p159pw1yfrp,bigger,337,111,372859,stimuli/32-Congruent.jpg,32,congruent,z,left,z,TRUE,1,3693,size comparision recognition timed,NA
2341,p159pw1yfrp,bigger,340,112,375568,stimuli/13-Congruent.jpg,13,congruent,z,left,z,TRUE,1,804,size comparision recognition timed,NA
2341,p159pw1yfrp,bigger,343,113,378526,stimuli/30-Inongruent.jpg,30,incongruent,m,right,m,TRUE,1,1051,size comparision recognition timed,NA
2341,p159pw1yfrp,bigger,346,114,381418,stimuli/15-Inongruent.jpg,15,incongruent,m,right,m,TRUE,1,987,size comparision recognition timed,NA
2341,p159pw1yfrp,bigger,349,115,384411,stimuli/24-Inongruent.jpg,24,incongruent,m,right,m,TRUE,1,1088,size comparision recognition timed,NA
2341,p159pw1yfrp,bigger,352,116,387199,stimuli/11-Congruent.jpg,11,congruent,z,left,z,TRUE,1,882,size comparision recognition timed,NA
2341,p159pw1yfrp,bigger,355,117,389739,stimuli/11-Congruent.jpg,11,congruent,z,left,z,TRUE,1,635,size comparision recognition timed,NA
2341,p159pw1yfrp,bigger,358,118,392498,stimuli/27-Inongruent.jpg,27,incongruent,m,right,m,TRUE,1,854,size comparision recognition timed,NA
2341,p159pw1yfrp,bigger,361,119,395246,stimuli/1-Inongruent.jpg,1,incongruent,m,right,m,TRUE,1,844,size comparision recognition timed,NA
2341,p159pw1yfrp,bigger,364,120,397888,stimuli/11-Inongruent.jpg,11,incongruent,m,right,m,TRUE,1,738,size comparision recognition timed,NA
2341,p159pw1yfrp,bigger,367,121,401814,stimuli/3-Inongruent.jpg,3,incongruent,m,right,m,TRUE,1,2023,size comparision recognition timed,NA
2341,p159pw1yfrp,bigger,370,122,404769,stimuli/25-Inongruent.jpg,25,incongruent,m,right,m,TRUE,1,1049,size comparision recognition timed,NA
2341,p159pw1yfrp,bigger,373,123,407679,stimuli/6-Congruent.jpg,6,congruent,z,left,z,TRUE,1,1006,size comparision recognition timed,NA
2341,p159pw1yfrp,bigger,376,124,410402,stimuli/25-Congruent.jpg,25,congruent,z,left,z,TRUE,1,819,size comparision recognition timed,NA
2341,p159pw1yfrp,bigger,379,125,413277,stimuli/14-Inongruent.jpg,14,incongruent,m,right,m,TRUE,1,970,size comparision recognition timed,NA
2341,p159pw1yfrp,bigger,382,126,415840,stimuli/32-Congruent.jpg,32,congruent,z,left,z,TRUE,1,658,size comparision recognition timed,NA
2341,p159pw1yfrp,bigger,385,127,418380,stimuli/20-Congruent.jpg,20,congruent,z,left,z,TRUE,1,636,size comparision recognition timed,NA
2341,p159pw1yfrp,bigger,388,128,421261,stimuli/31-Congruent.jpg,31,congruent,z,left,z,TRUE,1,975,size comparision recognition timed,NA
2341,p159pw1yfrp,bigger,391,129,424129,stimuli/28-Inongruent.jpg,28,incongruent,m,right,m,TRUE,1,964,size comparision recognition timed,NA
2341,p159pw1yfrp,bigger,394,130,426690,stimuli/21-Congruent.jpg,21,congruent,z,left,z,TRUE,1,657,size comparision recognition timed,NA
2341,p159pw1yfrp,bigger,397,131,429290,stimuli/18-Congruent.jpg,18,congruent,z,left,z,TRUE,1,695,size comparision recognition timed,NA
2341,p159pw1yfrp,bigger,400,132,431952,stimuli/33-Inongruent.jpg,33,incongruent,z,right,m,FALSE,0,757,size comparision recognition timed,NA
2341,p159pw1yfrp,bigger,403,133,439005,stimuli/16-Congruent.jpg,16,congruent,z,left,z,TRUE,1,1049,size comparision recognition timed,NA
2341,p159pw1yfrp,bigger,406,134,443197,stimuli/28-Inongruent.jpg,28,incongruent,m,right,m,TRUE,1,2290,size comparision recognition timed,NA
2341,p159pw1yfrp,bigger,409,135,446429,stimuli/17-Inongruent.jpg,17,incongruent,m,right,m,TRUE,1,1328,size comparision recognition timed,NA
2341,p159pw1yfrp,bigger,412,136,449078,stimuli/36-Inongruent.jpg,36,incongruent,m,right,m,TRUE,1,744,size comparision recognition timed,NA
2341,p159pw1yfrp,bigger,415,137,451714,stimuli/5-Congruent.jpg,5,congruent,z,left,z,TRUE,1,732,size comparision recognition timed,NA
2341,p159pw1yfrp,bigger,418,138,455460,stimuli/24-Congruent.jpg,24,congruent,z,left,z,TRUE,1,1841,size comparision recognition timed,NA
2341,p159pw1yfrp,bigger,421,139,458223,stimuli/9-Inongruent.jpg,9,incongruent,m,right,m,TRUE,1,857,size comparision recognition timed,NA
2341,p159pw1yfrp,bigger,424,140,460744,stimuli/27-Congruent.jpg,27,congruent,z,left,z,TRUE,1,616,size comparision recognition timed,NA
2341,p159pw1yfrp,bigger,427,141,463475,stimuli/30-Congruent.jpg,30,congruent,z,left,z,TRUE,1,826,size comparision recognition timed,NA
2341,p159pw1yfrp,bigger,430,142,465909,stimuli/16-Congruent.jpg,16,congruent,z,left,z,TRUE,1,529,size comparision recognition timed,NA
2341,p159pw1yfrp,bigger,433,143,468398,stimuli/2-Congruent.jpg,2,congruent,z,left,z,TRUE,1,584,size comparision recognition timed,NA
