"success","rt","trial_type","trial_index","plugin_version","time_elapsed","random_id","condition","participant","participant_thoughts","participant_difficulties","stimulus","response","timeout","failed_images","failed_audio","failed_video","correct_response","correct_response_key","correct"
"true","12702","fullscreen","0","null","13724","p01pepaop6w","bigger","gorilla","To test whether real-world knowledge of which object is bigger affects participant speed/ accuracy of determining which image is bigger (may or may not correspond to real world proportions)","No","","","","","","","","",""
"","1025","html-keyboard-response","1","2.0.0","14752","p01pepaop6w","bigger","gorilla","To test whether real-world knowledge of which object is bigger affects participant speed/ accuracy of determining which image is bigger (may or may not correspond to real world proportions)","No","Welcome to the Size Stroop experiment. Press any key to begin."," ","","","","","","",""
"","null","html-keyboard-response","2","2.0.0","15761","p01pepaop6w","bigger","gorilla","To test whether real-world knowledge of which object is bigger affects participant speed/ accuracy of determining which image is bigger (may or may not correspond to real world proportions)","No","This trial will be in fullscreen mode.","null","","","","","","",""
"","3325","survey-text","3","2.0.0","19095","p01pepaop6w","bigger","gorilla","To test whether real-world knowledge of which object is bigger affects participant speed/ accuracy of determining which image is bigger (may or may not correspond to real world proportions)","No","","{""participant_id"":""gorilla""}","","","","","","",""
"","7946","html-keyboard-response","4","2.0.0","27043","p01pepaop6w","bigger","gorilla","To test whether real-world knowledge of which object is bigger affects participant speed/ accuracy of determining which image is bigger (may or may not correspond to real world proportions)","No","<p>In this experiment, two images will appear on the screen. Identify the <strong>larger</strong> images.</p>
              <p>If the image on the left is larger, press ""z"". If the image on the right is larger, press ""m"".</p>
              <p>Press any key to begin.</p>"," ","","","","","","",""
"true","","preload","5","2.0.0","27474","p01pepaop6w","bigger","gorilla","To test whether real-world knowledge of which object is bigger affects participant speed/ accuracy of determining which image is bigger (may or may not correspond to real world proportions)","No","","","false","[]","[]","[]","","",""
"","null","html-keyboard-response","6","2.0.0","28491","p01pepaop6w","bigger","gorilla","To test whether real-world knowledge of which object is bigger affects participant speed/ accuracy of determining which image is bigger (may or may not correspond to real world proportions)","No","<div style=""font-size:60px;"">+</div>","null","","","","","","",""
"","2643","image-keyboard-response","7","2.0.0","31142","p01pepaop6w","bigger","gorilla","To test whether real-world knowledge of which object is bigger affects participant speed/ accuracy of determining which image is bigger (may or may not correspond to real world proportions)","No","stimuli/5-Inongruent.jpg","m","","","","","right","m","true"
"","null","html-keyboard-response","8","2.0.0","32046","p01pepaop6w","bigger","gorilla","To test whether real-world knowledge of which object is bigger affects participant speed/ accuracy of determining which image is bigger (may or may not correspond to real world proportions)","No","<p>Correct!</p>","null","","","","","","",""
"","null","html-keyboard-response","9","2.0.0","33050","p01pepaop6w","bigger","gorilla","To test whether real-world knowledge of which object is bigger affects participant speed/ accuracy of determining which image is bigger (may or may not correspond to real world proportions)","No","<div style=""font-size:60px;"">+</div>","null","","","","","","",""
"","947","image-keyboard-response","10","2.0.0","34000","p01pepaop6w","bigger","gorilla","To test whether real-world knowledge of which object is bigger affects participant speed/ accuracy of determining which image is bigger (may or may not correspond to real world proportions)","No","stimuli/30-Congruent.jpg","z","","","","","left","z","true"
"","null","html-keyboard-response","11","2.0.0","34903","p01pepaop6w","bigger","gorilla","To test whether real-world knowledge of which object is bigger affects participant speed/ accuracy of determining which image is bigger (may or may not correspond to real world proportions)","No","<p>Correct!</p>","null","","","","","","",""
"","null","html-keyboard-response","12","2.0.0","35906","p01pepaop6w","bigger","gorilla","To test whether real-world knowledge of which object is bigger affects participant speed/ accuracy of determining which image is bigger (may or may not correspond to real world proportions)","No","<div style=""font-size:60px;"">+</div>","null","","","","","","",""
"","939","image-keyboard-response","13","2.0.0","36848","p01pepaop6w","bigger","gorilla","To test whether real-world knowledge of which object is bigger affects participant speed/ accuracy of determining which image is bigger (may or may not correspond to real world proportions)","No","stimuli/30-Congruent.jpg","z","","","","","left","z","true"
"","null","html-keyboard-response","14","2.0.0","37759","p01pepaop6w","bigger","gorilla","To test whether real-world knowledge of which object is bigger affects participant speed/ accuracy of determining which image is bigger (may or may not correspond to real world proportions)","No","<p>Correct!</p>","null","","","","","","",""
"","null","html-keyboard-response","15","2.0.0","38764","p01pepaop6w","bigger","gorilla","To test whether real-world knowledge of which object is bigger affects participant speed/ accuracy of determining which image is bigger (may or may not correspond to real world proportions)","No","<div style=""font-size:60px;"">+</div>","null","","","","","","",""
"","790","image-keyboard-response","16","2.0.0","39556","p01pepaop6w","bigger","gorilla","To test whether real-world knowledge of which object is bigger affects participant speed/ accuracy of determining which image is bigger (may or may not correspond to real world proportions)","No","stimuli/34-Inongruent.jpg","m","","","","","right","m","true"
"","null","html-keyboard-response","17","2.0.0","40467","p01pepaop6w","bigger","gorilla","To test whether real-world knowledge of which object is bigger affects participant speed/ accuracy of determining which image is bigger (may or may not correspond to real world proportions)","No","<p>Correct!</p>","null","","","","","","",""
"","null","html-keyboard-response","18","2.0.0","41477","p01pepaop6w","bigger","gorilla","To test whether real-world knowledge of which object is bigger affects participant speed/ accuracy of determining which image is bigger (may or may not correspond to real world proportions)","No","<div style=""font-size:60px;"">+</div>","null","","","","","","",""
"","575","image-keyboard-response","19","2.0.0","42054","p01pepaop6w","bigger","gorilla","To test whether real-world knowledge of which object is bigger affects participant speed/ accuracy of determining which image is bigger (may or may not correspond to real world proportions)","No","stimuli/24-Inongruent.jpg","m","","","","","right","m","true"
"","null","html-keyboard-response","20","2.0.0","42964","p01pepaop6w","bigger","gorilla","To test whether real-world knowledge of which object is bigger affects participant speed/ accuracy of determining which image is bigger (may or may not correspond to real world proportions)","No","<p>Correct!</p>","null","","","","","","",""
"","null","html-keyboard-response","21","2.0.0","43970","p01pepaop6w","bigger","gorilla","To test whether real-world knowledge of which object is bigger affects participant speed/ accuracy of determining which image is bigger (may or may not correspond to real world proportions)","No","<div style=""font-size:60px;"">+</div>","null","","","","","","",""
"","489","image-keyboard-response","22","2.0.0","44461","p01pepaop6w","bigger","gorilla","To test whether real-world knowledge of which object is bigger affects participant speed/ accuracy of determining which image is bigger (may or may not correspond to real world proportions)","No","stimuli/14-Congruent.jpg","z","","","","","left","z","true"
"","null","html-keyboard-response","23","2.0.0","45370","p01pepaop6w","bigger","gorilla","To test whether real-world knowledge of which object is bigger affects participant speed/ accuracy of determining which image is bigger (may or may not correspond to real world proportions)","No","<p>Correct!</p>","null","","","","","","",""
"","null","html-keyboard-response","24","2.0.0","46373","p01pepaop6w","bigger","gorilla","To test whether real-world knowledge of which object is bigger affects participant speed/ accuracy of determining which image is bigger (may or may not correspond to real world proportions)","No","<div style=""font-size:60px;"">+</div>","null","","","","","","",""
"","512","image-keyboard-response","25","2.0.0","46888","p01pepaop6w","bigger","gorilla","To test whether real-world knowledge of which object is bigger affects participant speed/ accuracy of determining which image is bigger (may or may not correspond to real world proportions)","No","stimuli/14-Inongruent.jpg","m","","","","","right","m","true"
"","null","html-keyboard-response","26","2.0.0","47796","p01pepaop6w","bigger","gorilla","To test whether real-world knowledge of which object is bigger affects participant speed/ accuracy of determining which image is bigger (may or may not correspond to real world proportions)","No","<p>Correct!</p>","null","","","","","","",""
"","null","html-keyboard-response","27","2.0.0","48799","p01pepaop6w","bigger","gorilla","To test whether real-world knowledge of which object is bigger affects participant speed/ accuracy of determining which image is bigger (may or may not correspond to real world proportions)","No","<div style=""font-size:60px;"">+</div>","null","","","","","","",""
"","395","image-keyboard-response","28","2.0.0","49197","p01pepaop6w","bigger","gorilla","To test whether real-world knowledge of which object is bigger affects participant speed/ accuracy of determining which image is bigger (may or may not correspond to real world proportions)","No","stimuli/28-Inongruent.jpg","m","","","","","right","m","true"
"","null","html-keyboard-response","29","2.0.0","50113","p01pepaop6w","bigger","gorilla","To test whether real-world knowledge of which object is bigger affects participant speed/ accuracy of determining which image is bigger (may or may not correspond to real world proportions)","No","<p>Correct!</p>","null","","","","","","",""
"","null","html-keyboard-response","30","2.0.0","51129","p01pepaop6w","bigger","gorilla","To test whether real-world knowledge of which object is bigger affects participant speed/ accuracy of determining which image is bigger (may or may not correspond to real world proportions)","No","<div style=""font-size:60px;"">+</div>","null","","","","","","",""
"","333","image-keyboard-response","31","2.0.0","51464","p01pepaop6w","bigger","gorilla","To test whether real-world knowledge of which object is bigger affects participant speed/ accuracy of determining which image is bigger (may or may not correspond to real world proportions)","No","stimuli/20-Congruent.jpg","z","","","","","left","z","true"
"","null","html-keyboard-response","32","2.0.0","52366","p01pepaop6w","bigger","gorilla","To test whether real-world knowledge of which object is bigger affects participant speed/ accuracy of determining which image is bigger (may or may not correspond to real world proportions)","No","<p>Correct!</p>","null","","","","","","",""
"","null","html-keyboard-response","33","2.0.0","53372","p01pepaop6w","bigger","gorilla","To test whether real-world knowledge of which object is bigger affects participant speed/ accuracy of determining which image is bigger (may or may not correspond to real world proportions)","No","<div style=""font-size:60px;"">+</div>","null","","","","","","",""
"","401","image-keyboard-response","34","2.0.0","53776","p01pepaop6w","bigger","gorilla","To test whether real-world knowledge of which object is bigger affects participant speed/ accuracy of determining which image is bigger (may or may not correspond to real world proportions)","No","stimuli/25-Congruent.jpg","z","","","","","left","z","true"
"","null","html-keyboard-response","35","2.0.0","54679","p01pepaop6w","bigger","gorilla","To test whether real-world knowledge of which object is bigger affects participant speed/ accuracy of determining which image is bigger (may or may not correspond to real world proportions)","No","<p>Correct!</p>","null","","","","","","",""
"","null","html-keyboard-response","36","2.0.0","55685","p01pepaop6w","bigger","gorilla","To test whether real-world knowledge of which object is bigger affects participant speed/ accuracy of determining which image is bigger (may or may not correspond to real world proportions)","No","<div style=""font-size:60px;"">+</div>","null","","","","","","",""
"","363","image-keyboard-response","37","2.0.0","56051","p01pepaop6w","bigger","gorilla","To test whether real-world knowledge of which object is bigger affects participant speed/ accuracy of determining which image is bigger (may or may not correspond to real world proportions)","No","stimuli/27-Congruent.jpg","z","","","","","left","z","true"
"","null","html-keyboard-response","38","2.0.0","56957","p01pepaop6w","bigger","gorilla","To test whether real-world knowledge of which object is bigger affects participant speed/ accuracy of determining which image is bigger (may or may not correspond to real world proportions)","No","<p>Correct!</p>","null","","","","","","",""
"","null","html-keyboard-response","39","2.0.0","57973","p01pepaop6w","bigger","gorilla","To test whether real-world knowledge of which object is bigger affects participant speed/ accuracy of determining which image is bigger (may or may not correspond to real world proportions)","No","<div style=""font-size:60px;"">+</div>","null","","","","","","",""
"","383","image-keyboard-response","40","2.0.0","58360","p01pepaop6w","bigger","gorilla","To test whether real-world knowledge of which object is bigger affects participant speed/ accuracy of determining which image is bigger (may or may not correspond to real world proportions)","No","stimuli/18-Inongruent.jpg","m","","","","","right","m","true"
"","null","html-keyboard-response","41","2.0.0","59267","p01pepaop6w","bigger","gorilla","To test whether real-world knowledge of which object is bigger affects participant speed/ accuracy of determining which image is bigger (may or may not correspond to real world proportions)","No","<p>Correct!</p>","null","","","","","","",""
"","null","html-keyboard-response","42","2.0.0","60273","p01pepaop6w","bigger","gorilla","To test whether real-world knowledge of which object is bigger affects participant speed/ accuracy of determining which image is bigger (may or may not correspond to real world proportions)","No","<div style=""font-size:60px;"">+</div>","null","","","","","","",""
"","455","image-keyboard-response","43","2.0.0","60729","p01pepaop6w","bigger","gorilla","To test whether real-world knowledge of which object is bigger affects participant speed/ accuracy of determining which image is bigger (may or may not correspond to real world proportions)","No","stimuli/13-Inongruent.jpg","m","","","","","right","m","true"
"","null","html-keyboard-response","44","2.0.0","61646","p01pepaop6w","bigger","gorilla","To test whether real-world knowledge of which object is bigger affects participant speed/ accuracy of determining which image is bigger (may or may not correspond to real world proportions)","No","<p>Correct!</p>","null","","","","","","",""
"","null","html-keyboard-response","45","2.0.0","62653","p01pepaop6w","bigger","gorilla","To test whether real-world knowledge of which object is bigger affects participant speed/ accuracy of determining which image is bigger (may or may not correspond to real world proportions)","No","<div style=""font-size:60px;"">+</div>","null","","","","","","",""
"","305","image-keyboard-response","46","2.0.0","62960","p01pepaop6w","bigger","gorilla","To test whether real-world knowledge of which object is bigger affects participant speed/ accuracy of determining which image is bigger (may or may not correspond to real world proportions)","No","stimuli/23-Congruent.jpg","z","","","","","left","z","true"
"","null","html-keyboard-response","47","2.0.0","63867","p01pepaop6w","bigger","gorilla","To test whether real-world knowledge of which object is bigger affects participant speed/ accuracy of determining which image is bigger (may or may not correspond to real world proportions)","No","<p>Correct!</p>","null","","","","","","",""
"","null","html-keyboard-response","48","2.0.0","64875","p01pepaop6w","bigger","gorilla","To test whether real-world knowledge of which object is bigger affects participant speed/ accuracy of determining which image is bigger (may or may not correspond to real world proportions)","No","<div style=""font-size:60px;"">+</div>","null","","","","","","",""
"","359","image-keyboard-response","49","2.0.0","65236","p01pepaop6w","bigger","gorilla","To test whether real-world knowledge of which object is bigger affects participant speed/ accuracy of determining which image is bigger (may or may not correspond to real world proportions)","No","stimuli/34-Inongruent.jpg","m","","","","","right","m","true"
"","null","html-keyboard-response","50","2.0.0","66145","p01pepaop6w","bigger","gorilla","To test whether real-world knowledge of which object is bigger affects participant speed/ accuracy of determining which image is bigger (may or may not correspond to real world proportions)","No","<p>Correct!</p>","null","","","","","","",""
"","null","html-keyboard-response","51","2.0.0","67155","p01pepaop6w","bigger","gorilla","To test whether real-world knowledge of which object is bigger affects participant speed/ accuracy of determining which image is bigger (may or may not correspond to real world proportions)","No","<div style=""font-size:60px;"">+</div>","null","","","","","","",""
"","355","image-keyboard-response","52","2.0.0","67513","p01pepaop6w","bigger","gorilla","To test whether real-world knowledge of which object is bigger affects participant speed/ accuracy of determining which image is bigger (may or may not correspond to real world proportions)","No","stimuli/9-Inongruent.jpg","m","","","","","right","m","true"
"","null","html-keyboard-response","53","2.0.0","68419","p01pepaop6w","bigger","gorilla","To test whether real-world knowledge of which object is bigger affects participant speed/ accuracy of determining which image is bigger (may or may not correspond to real world proportions)","No","<p>Correct!</p>","null","","","","","","",""
"","null","html-keyboard-response","54","2.0.0","69424","p01pepaop6w","bigger","gorilla","To test whether real-world knowledge of which object is bigger affects participant speed/ accuracy of determining which image is bigger (may or may not correspond to real world proportions)","No","<div style=""font-size:60px;"">+</div>","null","","","","","","",""
"","377","image-keyboard-response","55","2.0.0","69803","p01pepaop6w","bigger","gorilla","To test whether real-world knowledge of which object is bigger affects participant speed/ accuracy of determining which image is bigger (may or may not correspond to real world proportions)","No","stimuli/13-Congruent.jpg","z","","","","","left","z","true"
"","null","html-keyboard-response","56","2.0.0","70713","p01pepaop6w","bigger","gorilla","To test whether real-world knowledge of which object is bigger affects participant speed/ accuracy of determining which image is bigger (may or may not correspond to real world proportions)","No","<p>Correct!</p>","null","","","","","","",""
"","null","html-keyboard-response","57","2.0.0","71719","p01pepaop6w","bigger","gorilla","To test whether real-world knowledge of which object is bigger affects participant speed/ accuracy of determining which image is bigger (may or may not correspond to real world proportions)","No","<div style=""font-size:60px;"">+</div>","null","","","","","","",""
"","342","image-keyboard-response","58","2.0.0","72063","p01pepaop6w","bigger","gorilla","To test whether real-world knowledge of which object is bigger affects participant speed/ accuracy of determining which image is bigger (may or may not correspond to real world proportions)","No","stimuli/6-Inongruent.jpg","m","","","","","right","m","true"
"","null","html-keyboard-response","59","2.0.0","72978","p01pepaop6w","bigger","gorilla","To test whether real-world knowledge of which object is bigger affects participant speed/ accuracy of determining which image is bigger (may or may not correspond to real world proportions)","No","<p>Correct!</p>","null","","","","","","",""
"","null","html-keyboard-response","60","2.0.0","73991","p01pepaop6w","bigger","gorilla","To test whether real-world knowledge of which object is bigger affects participant speed/ accuracy of determining which image is bigger (may or may not correspond to real world proportions)","No","<div style=""font-size:60px;"">+</div>","null","","","","","","",""
"","394","image-keyboard-response","61","2.0.0","74387","p01pepaop6w","bigger","gorilla","To test whether real-world knowledge of which object is bigger affects participant speed/ accuracy of determining which image is bigger (may or may not correspond to real world proportions)","No","stimuli/20-Inongruent.jpg","m","","","","","right","m","true"
"","null","html-keyboard-response","62","2.0.0","75294","p01pepaop6w","bigger","gorilla","To test whether real-world knowledge of which object is bigger affects participant speed/ accuracy of determining which image is bigger (may or may not correspond to real world proportions)","No","<p>Correct!</p>","null","","","","","","",""
"","null","html-keyboard-response","63","2.0.0","76300","p01pepaop6w","bigger","gorilla","To test whether real-world knowledge of which object is bigger affects participant speed/ accuracy of determining which image is bigger (may or may not correspond to real world proportions)","No","<div style=""font-size:60px;"">+</div>","null","","","","","","",""
"","398","image-keyboard-response","64","2.0.0","76701","p01pepaop6w","bigger","gorilla","To test whether real-world knowledge of which object is bigger affects participant speed/ accuracy of determining which image is bigger (may or may not correspond to real world proportions)","No","stimuli/2-Congruent.jpg","z","","","","","left","z","true"
"","null","html-keyboard-response","65","2.0.0","77616","p01pepaop6w","bigger","gorilla","To test whether real-world knowledge of which object is bigger affects participant speed/ accuracy of determining which image is bigger (may or may not correspond to real world proportions)","No","<p>Correct!</p>","null","","","","","","",""
"","null","html-keyboard-response","66","2.0.0","78622","p01pepaop6w","bigger","gorilla","To test whether real-world knowledge of which object is bigger affects participant speed/ accuracy of determining which image is bigger (may or may not correspond to real world proportions)","No","<div style=""font-size:60px;"">+</div>","null","","","","","","",""
"","355","image-keyboard-response","67","2.0.0","78981","p01pepaop6w","bigger","gorilla","To test whether real-world knowledge of which object is bigger affects participant speed/ accuracy of determining which image is bigger (may or may not correspond to real world proportions)","No","stimuli/29-Inongruent.jpg","m","","","","","right","m","true"
"","null","html-keyboard-response","68","2.0.0","79884","p01pepaop6w","bigger","gorilla","To test whether real-world knowledge of which object is bigger affects participant speed/ accuracy of determining which image is bigger (may or may not correspond to real world proportions)","No","<p>Correct!</p>","null","","","","","","",""
"","null","html-keyboard-response","69","2.0.0","80890","p01pepaop6w","bigger","gorilla","To test whether real-world knowledge of which object is bigger affects participant speed/ accuracy of determining which image is bigger (may or may not correspond to real world proportions)","No","<div style=""font-size:60px;"">+</div>","null","","","","","","",""
"","421","image-keyboard-response","70","2.0.0","81312","p01pepaop6w","bigger","gorilla","To test whether real-world knowledge of which object is bigger affects participant speed/ accuracy of determining which image is bigger (may or may not correspond to real world proportions)","No","stimuli/34-Congruent.jpg","z","","","","","left","z","true"
"","null","html-keyboard-response","71","2.0.0","82217","p01pepaop6w","bigger","gorilla","To test whether real-world knowledge of which object is bigger affects participant speed/ accuracy of determining which image is bigger (may or may not correspond to real world proportions)","No","<p>Correct!</p>","null","","","","","","",""
"","null","html-keyboard-response","72","2.0.0","83222","p01pepaop6w","bigger","gorilla","To test whether real-world knowledge of which object is bigger affects participant speed/ accuracy of determining which image is bigger (may or may not correspond to real world proportions)","No","<div style=""font-size:60px;"">+</div>","null","","","","","","",""
"","459","image-keyboard-response","73","2.0.0","83683","p01pepaop6w","bigger","gorilla","To test whether real-world knowledge of which object is bigger affects participant speed/ accuracy of determining which image is bigger (may or may not correspond to real world proportions)","No","stimuli/1-Congruent.jpg","z","","","","","left","z","true"
"","null","html-keyboard-response","74","2.0.0","84586","p01pepaop6w","bigger","gorilla","To test whether real-world knowledge of which object is bigger affects participant speed/ accuracy of determining which image is bigger (may or may not correspond to real world proportions)","No","<p>Correct!</p>","null","","","","","","",""
"","null","html-keyboard-response","75","2.0.0","85600","p01pepaop6w","bigger","gorilla","To test whether real-world knowledge of which object is bigger affects participant speed/ accuracy of determining which image is bigger (may or may not correspond to real world proportions)","No","<div style=""font-size:60px;"">+</div>","null","","","","","","",""
"","379","image-keyboard-response","76","2.0.0","85981","p01pepaop6w","bigger","gorilla","To test whether real-world knowledge of which object is bigger affects participant speed/ accuracy of determining which image is bigger (may or may not correspond to real world proportions)","No","stimuli/36-Inongruent.jpg","m","","","","","right","m","true"
"","null","html-keyboard-response","77","2.0.0","86889","p01pepaop6w","bigger","gorilla","To test whether real-world knowledge of which object is bigger affects participant speed/ accuracy of determining which image is bigger (may or may not correspond to real world proportions)","No","<p>Correct!</p>","null","","","","","","",""
"","null","html-keyboard-response","78","2.0.0","87895","p01pepaop6w","bigger","gorilla","To test whether real-world knowledge of which object is bigger affects participant speed/ accuracy of determining which image is bigger (may or may not correspond to real world proportions)","No","<div style=""font-size:60px;"">+</div>","null","","","","","","",""
"","418","image-keyboard-response","79","2.0.0","88316","p01pepaop6w","bigger","gorilla","To test whether real-world knowledge of which object is bigger affects participant speed/ accuracy of determining which image is bigger (may or may not correspond to real world proportions)","No","stimuli/13-Congruent.jpg","z","","","","","left","z","true"
"","null","html-keyboard-response","80","2.0.0","89225","p01pepaop6w","bigger","gorilla","To test whether real-world knowledge of which object is bigger affects participant speed/ accuracy of determining which image is bigger (may or may not correspond to real world proportions)","No","<p>Correct!</p>","null","","","","","","",""
"","null","html-keyboard-response","81","2.0.0","90230","p01pepaop6w","bigger","gorilla","To test whether real-world knowledge of which object is bigger affects participant speed/ accuracy of determining which image is bigger (may or may not correspond to real world proportions)","No","<div style=""font-size:60px;"">+</div>","null","","","","","","",""
"","304","image-keyboard-response","82","2.0.0","90536","p01pepaop6w","bigger","gorilla","To test whether real-world knowledge of which object is bigger affects participant speed/ accuracy of determining which image is bigger (may or may not correspond to real world proportions)","No","stimuli/32-Inongruent.jpg","m","","","","","right","m","true"
"","null","html-keyboard-response","83","2.0.0","91454","p01pepaop6w","bigger","gorilla","To test whether real-world knowledge of which object is bigger affects participant speed/ accuracy of determining which image is bigger (may or may not correspond to real world proportions)","No","<p>Correct!</p>","null","","","","","","",""
"","null","html-keyboard-response","84","2.0.0","92466","p01pepaop6w","bigger","gorilla","To test whether real-world knowledge of which object is bigger affects participant speed/ accuracy of determining which image is bigger (may or may not correspond to real world proportions)","No","<div style=""font-size:60px;"">+</div>","null","","","","","","",""
"","361","image-keyboard-response","85","2.0.0","92830","p01pepaop6w","bigger","gorilla","To test whether real-world knowledge of which object is bigger affects participant speed/ accuracy of determining which image is bigger (may or may not correspond to real world proportions)","No","stimuli/4-Inongruent.jpg","m","","","","","right","m","true"
"","null","html-keyboard-response","86","2.0.0","93740","p01pepaop6w","bigger","gorilla","To test whether real-world knowledge of which object is bigger affects participant speed/ accuracy of determining which image is bigger (may or may not correspond to real world proportions)","No","<p>Correct!</p>","null","","","","","","",""
"","null","html-keyboard-response","87","2.0.0","94756","p01pepaop6w","bigger","gorilla","To test whether real-world knowledge of which object is bigger affects participant speed/ accuracy of determining which image is bigger (may or may not correspond to real world proportions)","No","<div style=""font-size:60px;"">+</div>","null","","","","","","",""
"","396","image-keyboard-response","88","2.0.0","95154","p01pepaop6w","bigger","gorilla","To test whether real-world knowledge of which object is bigger affects participant speed/ accuracy of determining which image is bigger (may or may not correspond to real world proportions)","No","stimuli/21-Congruent.jpg","z","","","","","left","z","true"
"","null","html-keyboard-response","89","2.0.0","96069","p01pepaop6w","bigger","gorilla","To test whether real-world knowledge of which object is bigger affects participant speed/ accuracy of determining which image is bigger (may or may not correspond to real world proportions)","No","<p>Correct!</p>","null","","","","","","",""
"","null","html-keyboard-response","90","2.0.0","97073","p01pepaop6w","bigger","gorilla","To test whether real-world knowledge of which object is bigger affects participant speed/ accuracy of determining which image is bigger (may or may not correspond to real world proportions)","No","<div style=""font-size:60px;"">+</div>","null","","","","","","",""
"","295","image-keyboard-response","91","2.0.0","97371","p01pepaop6w","bigger","gorilla","To test whether real-world knowledge of which object is bigger affects participant speed/ accuracy of determining which image is bigger (may or may not correspond to real world proportions)","No","stimuli/22-Inongruent.jpg","m","","","","","right","m","true"
"","null","html-keyboard-response","92","2.0.0","98290","p01pepaop6w","bigger","gorilla","To test whether real-world knowledge of which object is bigger affects participant speed/ accuracy of determining which image is bigger (may or may not correspond to real world proportions)","No","<p>Correct!</p>","null","","","","","","",""
"","null","html-keyboard-response","93","2.0.0","99306","p01pepaop6w","bigger","gorilla","To test whether real-world knowledge of which object is bigger affects participant speed/ accuracy of determining which image is bigger (may or may not correspond to real world proportions)","No","<div style=""font-size:60px;"">+</div>","null","","","","","","",""
"","331","image-keyboard-response","94","2.0.0","99639","p01pepaop6w","bigger","gorilla","To test whether real-world knowledge of which object is bigger affects participant speed/ accuracy of determining which image is bigger (may or may not correspond to real world proportions)","No","stimuli/23-Congruent.jpg","z","","","","","left","z","true"
"","null","html-keyboard-response","95","2.0.0","100559","p01pepaop6w","bigger","gorilla","To test whether real-world knowledge of which object is bigger affects participant speed/ accuracy of determining which image is bigger (may or may not correspond to real world proportions)","No","<p>Correct!</p>","null","","","","","","",""
"","null","html-keyboard-response","96","2.0.0","101573","p01pepaop6w","bigger","gorilla","To test whether real-world knowledge of which object is bigger affects participant speed/ accuracy of determining which image is bigger (may or may not correspond to real world proportions)","No","<div style=""font-size:60px;"">+</div>","null","","","","","","",""
"","411","image-keyboard-response","97","2.0.0","101988","p01pepaop6w","bigger","gorilla","To test whether real-world knowledge of which object is bigger affects participant speed/ accuracy of determining which image is bigger (may or may not correspond to real world proportions)","No","stimuli/33-Inongruent.jpg","m","","","","","right","m","true"
"","null","html-keyboard-response","98","2.0.0","102896","p01pepaop6w","bigger","gorilla","To test whether real-world knowledge of which object is bigger affects participant speed/ accuracy of determining which image is bigger (may or may not correspond to real world proportions)","No","<p>Correct!</p>","null","","","","","","",""
"","null","html-keyboard-response","99","2.0.0","103901","p01pepaop6w","bigger","gorilla","To test whether real-world knowledge of which object is bigger affects participant speed/ accuracy of determining which image is bigger (may or may not correspond to real world proportions)","No","<div style=""font-size:60px;"">+</div>","null","","","","","","",""
"","301","image-keyboard-response","100","2.0.0","104204","p01pepaop6w","bigger","gorilla","To test whether real-world knowledge of which object is bigger affects participant speed/ accuracy of determining which image is bigger (may or may not correspond to real world proportions)","No","stimuli/4-Inongruent.jpg","m","","","","","right","m","true"
"","null","html-keyboard-response","101","2.0.0","105111","p01pepaop6w","bigger","gorilla","To test whether real-world knowledge of which object is bigger affects participant speed/ accuracy of determining which image is bigger (may or may not correspond to real world proportions)","No","<p>Correct!</p>","null","","","","","","",""
"","null","html-keyboard-response","102","2.0.0","106114","p01pepaop6w","bigger","gorilla","To test whether real-world knowledge of which object is bigger affects participant speed/ accuracy of determining which image is bigger (may or may not correspond to real world proportions)","No","<div style=""font-size:60px;"">+</div>","null","","","","","","",""
"","359","image-keyboard-response","103","2.0.0","106476","p01pepaop6w","bigger","gorilla","To test whether real-world knowledge of which object is bigger affects participant speed/ accuracy of determining which image is bigger (may or may not correspond to real world proportions)","No","stimuli/17-Inongruent.jpg","m","","","","","right","m","true"
"","null","html-keyboard-response","104","2.0.0","107385","p01pepaop6w","bigger","gorilla","To test whether real-world knowledge of which object is bigger affects participant speed/ accuracy of determining which image is bigger (may or may not correspond to real world proportions)","No","<p>Correct!</p>","null","","","","","","",""
"","null","html-keyboard-response","105","2.0.0","108392","p01pepaop6w","bigger","gorilla","To test whether real-world knowledge of which object is bigger affects participant speed/ accuracy of determining which image is bigger (may or may not correspond to real world proportions)","No","<div style=""font-size:60px;"">+</div>","null","","","","","","",""
"","369","image-keyboard-response","106","2.0.0","108764","p01pepaop6w","bigger","gorilla","To test whether real-world knowledge of which object is bigger affects participant speed/ accuracy of determining which image is bigger (may or may not correspond to real world proportions)","No","stimuli/33-Congruent.jpg","z","","","","","left","z","true"
"","null","html-keyboard-response","107","2.0.0","109674","p01pepaop6w","bigger","gorilla","To test whether real-world knowledge of which object is bigger affects participant speed/ accuracy of determining which image is bigger (may or may not correspond to real world proportions)","No","<p>Correct!</p>","null","","","","","","",""
"","null","html-keyboard-response","108","2.0.0","110680","p01pepaop6w","bigger","gorilla","To test whether real-world knowledge of which object is bigger affects participant speed/ accuracy of determining which image is bigger (may or may not correspond to real world proportions)","No","<div style=""font-size:60px;"">+</div>","null","","","","","","",""
"","449","image-keyboard-response","109","2.0.0","111130","p01pepaop6w","bigger","gorilla","To test whether real-world knowledge of which object is bigger affects participant speed/ accuracy of determining which image is bigger (may or may not correspond to real world proportions)","No","stimuli/3-Congruent.jpg","z","","","","","left","z","true"
"","null","html-keyboard-response","110","2.0.0","112034","p01pepaop6w","bigger","gorilla","To test whether real-world knowledge of which object is bigger affects participant speed/ accuracy of determining which image is bigger (may or may not correspond to real world proportions)","No","<p>Correct!</p>","null","","","","","","",""
"","null","html-keyboard-response","111","2.0.0","113037","p01pepaop6w","bigger","gorilla","To test whether real-world knowledge of which object is bigger affects participant speed/ accuracy of determining which image is bigger (may or may not correspond to real world proportions)","No","<div style=""font-size:60px;"">+</div>","null","","","","","","",""
"","368","image-keyboard-response","112","2.0.0","113408","p01pepaop6w","bigger","gorilla","To test whether real-world knowledge of which object is bigger affects participant speed/ accuracy of determining which image is bigger (may or may not correspond to real world proportions)","No","stimuli/35-Inongruent.jpg","m","","","","","right","m","true"
"","null","html-keyboard-response","113","2.0.0","114322","p01pepaop6w","bigger","gorilla","To test whether real-world knowledge of which object is bigger affects participant speed/ accuracy of determining which image is bigger (may or may not correspond to real world proportions)","No","<p>Correct!</p>","null","","","","","","",""
"","null","html-keyboard-response","114","2.0.0","115340","p01pepaop6w","bigger","gorilla","To test whether real-world knowledge of which object is bigger affects participant speed/ accuracy of determining which image is bigger (may or may not correspond to real world proportions)","No","<div style=""font-size:60px;"">+</div>","null","","","","","","",""
"","359","image-keyboard-response","115","2.0.0","115702","p01pepaop6w","bigger","gorilla","To test whether real-world knowledge of which object is bigger affects participant speed/ accuracy of determining which image is bigger (may or may not correspond to real world proportions)","No","stimuli/28-Congruent.jpg","z","","","","","left","z","true"
"","null","html-keyboard-response","116","2.0.0","116615","p01pepaop6w","bigger","gorilla","To test whether real-world knowledge of which object is bigger affects participant speed/ accuracy of determining which image is bigger (may or may not correspond to real world proportions)","No","<p>Correct!</p>","null","","","","","","",""
"","null","html-keyboard-response","117","2.0.0","117626","p01pepaop6w","bigger","gorilla","To test whether real-world knowledge of which object is bigger affects participant speed/ accuracy of determining which image is bigger (may or may not correspond to real world proportions)","No","<div style=""font-size:60px;"">+</div>","null","","","","","","",""
"","331","image-keyboard-response","118","2.0.0","117960","p01pepaop6w","bigger","gorilla","To test whether real-world knowledge of which object is bigger affects participant speed/ accuracy of determining which image is bigger (may or may not correspond to real world proportions)","No","stimuli/2-Inongruent.jpg","m","","","","","right","m","true"
"","null","html-keyboard-response","119","2.0.0","118875","p01pepaop6w","bigger","gorilla","To test whether real-world knowledge of which object is bigger affects participant speed/ accuracy of determining which image is bigger (may or may not correspond to real world proportions)","No","<p>Correct!</p>","null","","","","","","",""
"","null","html-keyboard-response","120","2.0.0","119885","p01pepaop6w","bigger","gorilla","To test whether real-world knowledge of which object is bigger affects participant speed/ accuracy of determining which image is bigger (may or may not correspond to real world proportions)","No","<div style=""font-size:60px;"">+</div>","null","","","","","","",""
"","352","image-keyboard-response","121","2.0.0","120240","p01pepaop6w","bigger","gorilla","To test whether real-world knowledge of which object is bigger affects participant speed/ accuracy of determining which image is bigger (may or may not correspond to real world proportions)","No","stimuli/31-Congruent.jpg","z","","","","","left","z","true"
"","null","html-keyboard-response","122","2.0.0","121143","p01pepaop6w","bigger","gorilla","To test whether real-world knowledge of which object is bigger affects participant speed/ accuracy of determining which image is bigger (may or may not correspond to real world proportions)","No","<p>Correct!</p>","null","","","","","","",""
"","null","html-keyboard-response","123","2.0.0","122158","p01pepaop6w","bigger","gorilla","To test whether real-world knowledge of which object is bigger affects participant speed/ accuracy of determining which image is bigger (may or may not correspond to real world proportions)","No","<div style=""font-size:60px;"">+</div>","null","","","","","","",""
"","287","image-keyboard-response","124","2.0.0","122448","p01pepaop6w","bigger","gorilla","To test whether real-world knowledge of which object is bigger affects participant speed/ accuracy of determining which image is bigger (may or may not correspond to real world proportions)","No","stimuli/5-Inongruent.jpg","m","","","","","right","m","true"
"","null","html-keyboard-response","125","2.0.0","123364","p01pepaop6w","bigger","gorilla","To test whether real-world knowledge of which object is bigger affects participant speed/ accuracy of determining which image is bigger (may or may not correspond to real world proportions)","No","<p>Correct!</p>","null","","","","","","",""
"","null","html-keyboard-response","126","2.0.0","124377","p01pepaop6w","bigger","gorilla","To test whether real-world knowledge of which object is bigger affects participant speed/ accuracy of determining which image is bigger (may or may not correspond to real world proportions)","No","<div style=""font-size:60px;"">+</div>","null","","","","","","",""
"","303","image-keyboard-response","127","2.0.0","124684","p01pepaop6w","bigger","gorilla","To test whether real-world knowledge of which object is bigger affects participant speed/ accuracy of determining which image is bigger (may or may not correspond to real world proportions)","No","stimuli/7-Inongruent.jpg","m","","","","","right","m","true"
"","null","html-keyboard-response","128","2.0.0","125591","p01pepaop6w","bigger","gorilla","To test whether real-world knowledge of which object is bigger affects participant speed/ accuracy of determining which image is bigger (may or may not correspond to real world proportions)","No","<p>Correct!</p>","null","","","","","","",""
"","null","html-keyboard-response","129","2.0.0","126605","p01pepaop6w","bigger","gorilla","To test whether real-world knowledge of which object is bigger affects participant speed/ accuracy of determining which image is bigger (may or may not correspond to real world proportions)","No","<div style=""font-size:60px;"">+</div>","null","","","","","","",""
"","347","image-keyboard-response","130","2.0.0","126954","p01pepaop6w","bigger","gorilla","To test whether real-world knowledge of which object is bigger affects participant speed/ accuracy of determining which image is bigger (may or may not correspond to real world proportions)","No","stimuli/31-Inongruent.jpg","m","","","","","right","m","true"
"","null","html-keyboard-response","131","2.0.0","127862","p01pepaop6w","bigger","gorilla","To test whether real-world knowledge of which object is bigger affects participant speed/ accuracy of determining which image is bigger (may or may not correspond to real world proportions)","No","<p>Correct!</p>","null","","","","","","",""
"","null","html-keyboard-response","132","2.0.0","128868","p01pepaop6w","bigger","gorilla","To test whether real-world knowledge of which object is bigger affects participant speed/ accuracy of determining which image is bigger (may or may not correspond to real world proportions)","No","<div style=""font-size:60px;"">+</div>","null","","","","","","",""
"","222","image-keyboard-response","133","2.0.0","129092","p01pepaop6w","bigger","gorilla","To test whether real-world knowledge of which object is bigger affects participant speed/ accuracy of determining which image is bigger (may or may not correspond to real world proportions)","No","stimuli/1-Inongruent.jpg","m","","","","","right","m","true"
"","null","html-keyboard-response","134","2.0.0","129999","p01pepaop6w","bigger","gorilla","To test whether real-world knowledge of which object is bigger affects participant speed/ accuracy of determining which image is bigger (may or may not correspond to real world proportions)","No","<p>Correct!</p>","null","","","","","","",""
"","null","html-keyboard-response","135","2.0.0","131016","p01pepaop6w","bigger","gorilla","To test whether real-world knowledge of which object is bigger affects participant speed/ accuracy of determining which image is bigger (may or may not correspond to real world proportions)","No","<div style=""font-size:60px;"">+</div>","null","","","","","","",""
"","344","image-keyboard-response","136","2.0.0","131362","p01pepaop6w","bigger","gorilla","To test whether real-world knowledge of which object is bigger affects participant speed/ accuracy of determining which image is bigger (may or may not correspond to real world proportions)","No","stimuli/18-Congruent.jpg","z","","","","","left","z","true"
"","null","html-keyboard-response","137","2.0.0","132269","p01pepaop6w","bigger","gorilla","To test whether real-world knowledge of which object is bigger affects participant speed/ accuracy of determining which image is bigger (may or may not correspond to real world proportions)","No","<p>Correct!</p>","null","","","","","","",""
"","null","html-keyboard-response","138","2.0.0","133286","p01pepaop6w","bigger","gorilla","To test whether real-world knowledge of which object is bigger affects participant speed/ accuracy of determining which image is bigger (may or may not correspond to real world proportions)","No","<div style=""font-size:60px;"">+</div>","null","","","","","","",""
"","304","image-keyboard-response","139","2.0.0","133593","p01pepaop6w","bigger","gorilla","To test whether real-world knowledge of which object is bigger affects participant speed/ accuracy of determining which image is bigger (may or may not correspond to real world proportions)","No","stimuli/36-Inongruent.jpg","m","","","","","right","m","true"
"","null","html-keyboard-response","140","2.0.0","134495","p01pepaop6w","bigger","gorilla","To test whether real-world knowledge of which object is bigger affects participant speed/ accuracy of determining which image is bigger (may or may not correspond to real world proportions)","No","<p>Correct!</p>","null","","","","","","",""
"","null","html-keyboard-response","141","2.0.0","135512","p01pepaop6w","bigger","gorilla","To test whether real-world knowledge of which object is bigger affects participant speed/ accuracy of determining which image is bigger (may or may not correspond to real world proportions)","No","<div style=""font-size:60px;"">+</div>","null","","","","","","",""
"","309","image-keyboard-response","142","2.0.0","135824","p01pepaop6w","bigger","gorilla","To test whether real-world knowledge of which object is bigger affects participant speed/ accuracy of determining which image is bigger (may or may not correspond to real world proportions)","No","stimuli/4-Congruent.jpg","m","","","","","left","z","false"
"","0","html-keyboard-response","143","2.0.0","135825","p01pepaop6w","bigger","gorilla","To test whether real-world knowledge of which object is bigger affects participant speed/ accuracy of determining which image is bigger (may or may not correspond to real world proportions)","No","<p>Incorrect.</p><p>Remember to select the <b>bigger</b> image.</p><p>Continuing in 5 seconds...</p>","z","","","","","","",""
"","null","html-keyboard-response","144","2.0.0","136829","p01pepaop6w","bigger","gorilla","To test whether real-world knowledge of which object is bigger affects participant speed/ accuracy of determining which image is bigger (may or may not correspond to real world proportions)","No","<div style=""font-size:60px;"">+</div>","null","","","","","","",""
"","547","image-keyboard-response","145","2.0.0","137378","p01pepaop6w","bigger","gorilla","To test whether real-world knowledge of which object is bigger affects participant speed/ accuracy of determining which image is bigger (may or may not correspond to real world proportions)","No","stimuli/8-Inongruent.jpg","m","","","","","right","m","true"
"","null","html-keyboard-response","146","2.0.0","138285","p01pepaop6w","bigger","gorilla","To test whether real-world knowledge of which object is bigger affects participant speed/ accuracy of determining which image is bigger (may or may not correspond to real world proportions)","No","<p>Correct!</p>","null","","","","","","",""
"","null","html-keyboard-response","147","2.0.0","139288","p01pepaop6w","bigger","gorilla","To test whether real-world knowledge of which object is bigger affects participant speed/ accuracy of determining which image is bigger (may or may not correspond to real world proportions)","No","<div style=""font-size:60px;"">+</div>","null","","","","","","",""
"","396","image-keyboard-response","148","2.0.0","139686","p01pepaop6w","bigger","gorilla","To test whether real-world knowledge of which object is bigger affects participant speed/ accuracy of determining which image is bigger (may or may not correspond to real world proportions)","No","stimuli/15-Congruent.jpg","z","","","","","left","z","true"
"","null","html-keyboard-response","149","2.0.0","140600","p01pepaop6w","bigger","gorilla","To test whether real-world knowledge of which object is bigger affects participant speed/ accuracy of determining which image is bigger (may or may not correspond to real world proportions)","No","<p>Correct!</p>","null","","","","","","",""
"","null","html-keyboard-response","150","2.0.0","141603","p01pepaop6w","bigger","gorilla","To test whether real-world knowledge of which object is bigger affects participant speed/ accuracy of determining which image is bigger (may or may not correspond to real world proportions)","No","<div style=""font-size:60px;"">+</div>","null","","","","","","",""
"","314","image-keyboard-response","151","2.0.0","141919","p01pepaop6w","bigger","gorilla","To test whether real-world knowledge of which object is bigger affects participant speed/ accuracy of determining which image is bigger (may or may not correspond to real world proportions)","No","stimuli/10-Inongruent.jpg","m","","","","","right","m","true"
"","null","html-keyboard-response","152","2.0.0","142825","p01pepaop6w","bigger","gorilla","To test whether real-world knowledge of which object is bigger affects participant speed/ accuracy of determining which image is bigger (may or may not correspond to real world proportions)","No","<p>Correct!</p>","null","","","","","","",""
"","null","html-keyboard-response","153","2.0.0","143827","p01pepaop6w","bigger","gorilla","To test whether real-world knowledge of which object is bigger affects participant speed/ accuracy of determining which image is bigger (may or may not correspond to real world proportions)","No","<div style=""font-size:60px;"">+</div>","null","","","","","","",""
"","412","image-keyboard-response","154","2.0.0","144241","p01pepaop6w","bigger","gorilla","To test whether real-world knowledge of which object is bigger affects participant speed/ accuracy of determining which image is bigger (may or may not correspond to real world proportions)","No","stimuli/31-Congruent.jpg","z","","","","","left","z","true"
"","null","html-keyboard-response","155","2.0.0","145153","p01pepaop6w","bigger","gorilla","To test whether real-world knowledge of which object is bigger affects participant speed/ accuracy of determining which image is bigger (may or may not correspond to real world proportions)","No","<p>Correct!</p>","null","","","","","","",""
"","null","html-keyboard-response","156","2.0.0","146161","p01pepaop6w","bigger","gorilla","To test whether real-world knowledge of which object is bigger affects participant speed/ accuracy of determining which image is bigger (may or may not correspond to real world proportions)","No","<div style=""font-size:60px;"">+</div>","null","","","","","","",""
"","379","image-keyboard-response","157","2.0.0","146541","p01pepaop6w","bigger","gorilla","To test whether real-world knowledge of which object is bigger affects participant speed/ accuracy of determining which image is bigger (may or may not correspond to real world proportions)","No","stimuli/10-Congruent.jpg","z","","","","","left","z","true"
"","null","html-keyboard-response","158","2.0.0","147455","p01pepaop6w","bigger","gorilla","To test whether real-world knowledge of which object is bigger affects participant speed/ accuracy of determining which image is bigger (may or may not correspond to real world proportions)","No","<p>Correct!</p>","null","","","","","","",""
"","null","html-keyboard-response","159","2.0.0","148464","p01pepaop6w","bigger","gorilla","To test whether real-world knowledge of which object is bigger affects participant speed/ accuracy of determining which image is bigger (may or may not correspond to real world proportions)","No","<div style=""font-size:60px;"">+</div>","null","","","","","","",""
"","444","image-keyboard-response","160","2.0.0","148910","p01pepaop6w","bigger","gorilla","To test whether real-world knowledge of which object is bigger affects participant speed/ accuracy of determining which image is bigger (may or may not correspond to real world proportions)","No","stimuli/6-Congruent.jpg","z","","","","","left","z","true"
"","null","html-keyboard-response","161","2.0.0","149826","p01pepaop6w","bigger","gorilla","To test whether real-world knowledge of which object is bigger affects participant speed/ accuracy of determining which image is bigger (may or may not correspond to real world proportions)","No","<p>Correct!</p>","null","","","","","","",""
"","null","html-keyboard-response","162","2.0.0","150837","p01pepaop6w","bigger","gorilla","To test whether real-world knowledge of which object is bigger affects participant speed/ accuracy of determining which image is bigger (may or may not correspond to real world proportions)","No","<div style=""font-size:60px;"">+</div>","null","","","","","","",""
"","446","image-keyboard-response","163","2.0.0","151285","p01pepaop6w","bigger","gorilla","To test whether real-world knowledge of which object is bigger affects participant speed/ accuracy of determining which image is bigger (may or may not correspond to real world proportions)","No","stimuli/26-Congruent.jpg","z","","","","","left","z","true"
"","null","html-keyboard-response","164","2.0.0","152196","p01pepaop6w","bigger","gorilla","To test whether real-world knowledge of which object is bigger affects participant speed/ accuracy of determining which image is bigger (may or may not correspond to real world proportions)","No","<p>Correct!</p>","null","","","","","","",""
"","null","html-keyboard-response","165","2.0.0","153202","p01pepaop6w","bigger","gorilla","To test whether real-world knowledge of which object is bigger affects participant speed/ accuracy of determining which image is bigger (may or may not correspond to real world proportions)","No","<div style=""font-size:60px;"">+</div>","null","","","","","","",""
"","333","image-keyboard-response","166","2.0.0","153537","p01pepaop6w","bigger","gorilla","To test whether real-world knowledge of which object is bigger affects participant speed/ accuracy of determining which image is bigger (may or may not correspond to real world proportions)","No","stimuli/13-Inongruent.jpg","m","","","","","right","m","true"
"","null","html-keyboard-response","167","2.0.0","154449","p01pepaop6w","bigger","gorilla","To test whether real-world knowledge of which object is bigger affects participant speed/ accuracy of determining which image is bigger (may or may not correspond to real world proportions)","No","<p>Correct!</p>","null","","","","","","",""
"","null","html-keyboard-response","168","2.0.0","155455","p01pepaop6w","bigger","gorilla","To test whether real-world knowledge of which object is bigger affects participant speed/ accuracy of determining which image is bigger (may or may not correspond to real world proportions)","No","<div style=""font-size:60px;"">+</div>","null","","","","","","",""
"","460","image-keyboard-response","169","2.0.0","155917","p01pepaop6w","bigger","gorilla","To test whether real-world knowledge of which object is bigger affects participant speed/ accuracy of determining which image is bigger (may or may not correspond to real world proportions)","No","stimuli/4-Congruent.jpg","z","","","","","left","z","true"
"","null","html-keyboard-response","170","2.0.0","156832","p01pepaop6w","bigger","gorilla","To test whether real-world knowledge of which object is bigger affects participant speed/ accuracy of determining which image is bigger (may or may not correspond to real world proportions)","No","<p>Correct!</p>","null","","","","","","",""
"","null","html-keyboard-response","171","2.0.0","157834","p01pepaop6w","bigger","gorilla","To test whether real-world knowledge of which object is bigger affects participant speed/ accuracy of determining which image is bigger (may or may not correspond to real world proportions)","No","<div style=""font-size:60px;"">+</div>","null","","","","","","",""
"","361","image-keyboard-response","172","2.0.0","158198","p01pepaop6w","bigger","gorilla","To test whether real-world knowledge of which object is bigger affects participant speed/ accuracy of determining which image is bigger (may or may not correspond to real world proportions)","No","stimuli/17-Congruent.jpg","z","","","","","left","z","true"
"","null","html-keyboard-response","173","2.0.0","159109","p01pepaop6w","bigger","gorilla","To test whether real-world knowledge of which object is bigger affects participant speed/ accuracy of determining which image is bigger (may or may not correspond to real world proportions)","No","<p>Correct!</p>","null","","","","","","",""
"","null","html-keyboard-response","174","2.0.0","160116","p01pepaop6w","bigger","gorilla","To test whether real-world knowledge of which object is bigger affects participant speed/ accuracy of determining which image is bigger (may or may not correspond to real world proportions)","No","<div style=""font-size:60px;"">+</div>","null","","","","","","",""
"","330","image-keyboard-response","175","2.0.0","160448","p01pepaop6w","bigger","gorilla","To test whether real-world knowledge of which object is bigger affects participant speed/ accuracy of determining which image is bigger (may or may not correspond to real world proportions)","No","stimuli/26-Inongruent.jpg","m","","","","","right","m","true"
"","null","html-keyboard-response","176","2.0.0","161351","p01pepaop6w","bigger","gorilla","To test whether real-world knowledge of which object is bigger affects participant speed/ accuracy of determining which image is bigger (may or may not correspond to real world proportions)","No","<p>Correct!</p>","null","","","","","","",""
"","null","html-keyboard-response","177","2.0.0","162367","p01pepaop6w","bigger","gorilla","To test whether real-world knowledge of which object is bigger affects participant speed/ accuracy of determining which image is bigger (may or may not correspond to real world proportions)","No","<div style=""font-size:60px;"">+</div>","null","","","","","","",""
"","414","image-keyboard-response","178","2.0.0","162783","p01pepaop6w","bigger","gorilla","To test whether real-world knowledge of which object is bigger affects participant speed/ accuracy of determining which image is bigger (may or may not correspond to real world proportions)","No","stimuli/24-Congruent.jpg","z","","","","","left","z","true"
"","null","html-keyboard-response","179","2.0.0","163688","p01pepaop6w","bigger","gorilla","To test whether real-world knowledge of which object is bigger affects participant speed/ accuracy of determining which image is bigger (may or may not correspond to real world proportions)","No","<p>Correct!</p>","null","","","","","","",""
"","null","html-keyboard-response","180","2.0.0","164697","p01pepaop6w","bigger","gorilla","To test whether real-world knowledge of which object is bigger affects participant speed/ accuracy of determining which image is bigger (may or may not correspond to real world proportions)","No","<div style=""font-size:60px;"">+</div>","null","","","","","","",""
"","380","image-keyboard-response","181","2.0.0","165080","p01pepaop6w","bigger","gorilla","To test whether real-world knowledge of which object is bigger affects participant speed/ accuracy of determining which image is bigger (may or may not correspond to real world proportions)","No","stimuli/19-Inongruent.jpg","m","","","","","right","m","true"
"","null","html-keyboard-response","182","2.0.0","165992","p01pepaop6w","bigger","gorilla","To test whether real-world knowledge of which object is bigger affects participant speed/ accuracy of determining which image is bigger (may or may not correspond to real world proportions)","No","<p>Correct!</p>","null","","","","","","",""
"","null","html-keyboard-response","183","2.0.0","167003","p01pepaop6w","bigger","gorilla","To test whether real-world knowledge of which object is bigger affects participant speed/ accuracy of determining which image is bigger (may or may not correspond to real world proportions)","No","<div style=""font-size:60px;"">+</div>","null","","","","","","",""
"","317","image-keyboard-response","184","2.0.0","167322","p01pepaop6w","bigger","gorilla","To test whether real-world knowledge of which object is bigger affects participant speed/ accuracy of determining which image is bigger (may or may not correspond to real world proportions)","No","stimuli/22-Congruent.jpg","z","","","","","left","z","true"
"","null","html-keyboard-response","185","2.0.0","168225","p01pepaop6w","bigger","gorilla","To test whether real-world knowledge of which object is bigger affects participant speed/ accuracy of determining which image is bigger (may or may not correspond to real world proportions)","No","<p>Correct!</p>","null","","","","","","",""
"","null","html-keyboard-response","186","2.0.0","169227","p01pepaop6w","bigger","gorilla","To test whether real-world knowledge of which object is bigger affects participant speed/ accuracy of determining which image is bigger (may or may not correspond to real world proportions)","No","<div style=""font-size:60px;"">+</div>","null","","","","","","",""
"","297","image-keyboard-response","187","2.0.0","169527","p01pepaop6w","bigger","gorilla","To test whether real-world knowledge of which object is bigger affects participant speed/ accuracy of determining which image is bigger (may or may not correspond to real world proportions)","No","stimuli/30-Inongruent.jpg","m","","","","","right","m","true"
"","null","html-keyboard-response","188","2.0.0","170429","p01pepaop6w","bigger","gorilla","To test whether real-world knowledge of which object is bigger affects participant speed/ accuracy of determining which image is bigger (may or may not correspond to real world proportions)","No","<p>Correct!</p>","null","","","","","","",""
"","null","html-keyboard-response","189","2.0.0","171432","p01pepaop6w","bigger","gorilla","To test whether real-world knowledge of which object is bigger affects participant speed/ accuracy of determining which image is bigger (may or may not correspond to real world proportions)","No","<div style=""font-size:60px;"">+</div>","null","","","","","","",""
"","367","image-keyboard-response","190","2.0.0","171802","p01pepaop6w","bigger","gorilla","To test whether real-world knowledge of which object is bigger affects participant speed/ accuracy of determining which image is bigger (may or may not correspond to real world proportions)","No","stimuli/12-Congruent.jpg","z","","","","","left","z","true"
"","null","html-keyboard-response","191","2.0.0","172705","p01pepaop6w","bigger","gorilla","To test whether real-world knowledge of which object is bigger affects participant speed/ accuracy of determining which image is bigger (may or may not correspond to real world proportions)","No","<p>Correct!</p>","null","","","","","","",""
"","null","html-keyboard-response","192","2.0.0","173721","p01pepaop6w","bigger","gorilla","To test whether real-world knowledge of which object is bigger affects participant speed/ accuracy of determining which image is bigger (may or may not correspond to real world proportions)","No","<div style=""font-size:60px;"">+</div>","null","","","","","","",""
"","422","image-keyboard-response","193","2.0.0","174146","p01pepaop6w","bigger","gorilla","To test whether real-world knowledge of which object is bigger affects participant speed/ accuracy of determining which image is bigger (may or may not correspond to real world proportions)","No","stimuli/11-Congruent.jpg","z","","","","","left","z","true"
"","null","html-keyboard-response","194","2.0.0","175064","p01pepaop6w","bigger","gorilla","To test whether real-world knowledge of which object is bigger affects participant speed/ accuracy of determining which image is bigger (may or may not correspond to real world proportions)","No","<p>Correct!</p>","null","","","","","","",""
"","null","html-keyboard-response","195","2.0.0","176076","p01pepaop6w","bigger","gorilla","To test whether real-world knowledge of which object is bigger affects participant speed/ accuracy of determining which image is bigger (may or may not correspond to real world proportions)","No","<div style=""font-size:60px;"">+</div>","null","","","","","","",""
"","354","image-keyboard-response","196","2.0.0","176432","p01pepaop6w","bigger","gorilla","To test whether real-world knowledge of which object is bigger affects participant speed/ accuracy of determining which image is bigger (may or may not correspond to real world proportions)","No","stimuli/14-Inongruent.jpg","m","","","","","right","m","true"
"","null","html-keyboard-response","197","2.0.0","177350","p01pepaop6w","bigger","gorilla","To test whether real-world knowledge of which object is bigger affects participant speed/ accuracy of determining which image is bigger (may or may not correspond to real world proportions)","No","<p>Correct!</p>","null","","","","","","",""
"","null","html-keyboard-response","198","2.0.0","178367","p01pepaop6w","bigger","gorilla","To test whether real-world knowledge of which object is bigger affects participant speed/ accuracy of determining which image is bigger (may or may not correspond to real world proportions)","No","<div style=""font-size:60px;"">+</div>","null","","","","","","",""
"","401","image-keyboard-response","199","2.0.0","178770","p01pepaop6w","bigger","gorilla","To test whether real-world knowledge of which object is bigger affects participant speed/ accuracy of determining which image is bigger (may or may not correspond to real world proportions)","No","stimuli/22-Congruent.jpg","z","","","","","left","z","true"
"","null","html-keyboard-response","200","2.0.0","179679","p01pepaop6w","bigger","gorilla","To test whether real-world knowledge of which object is bigger affects participant speed/ accuracy of determining which image is bigger (may or may not correspond to real world proportions)","No","<p>Correct!</p>","null","","","","","","",""
"","null","html-keyboard-response","201","2.0.0","180683","p01pepaop6w","bigger","gorilla","To test whether real-world knowledge of which object is bigger affects participant speed/ accuracy of determining which image is bigger (may or may not correspond to real world proportions)","No","<div style=""font-size:60px;"">+</div>","null","","","","","","",""
"","404","image-keyboard-response","202","2.0.0","181089","p01pepaop6w","bigger","gorilla","To test whether real-world knowledge of which object is bigger affects participant speed/ accuracy of determining which image is bigger (may or may not correspond to real world proportions)","No","stimuli/29-Congruent.jpg","z","","","","","left","z","true"
"","null","html-keyboard-response","203","2.0.0","181998","p01pepaop6w","bigger","gorilla","To test whether real-world knowledge of which object is bigger affects participant speed/ accuracy of determining which image is bigger (may or may not correspond to real world proportions)","No","<p>Correct!</p>","null","","","","","","",""
"","null","html-keyboard-response","204","2.0.0","183003","p01pepaop6w","bigger","gorilla","To test whether real-world knowledge of which object is bigger affects participant speed/ accuracy of determining which image is bigger (may or may not correspond to real world proportions)","No","<div style=""font-size:60px;"">+</div>","null","","","","","","",""
"","373","image-keyboard-response","205","2.0.0","183377","p01pepaop6w","bigger","gorilla","To test whether real-world knowledge of which object is bigger affects participant speed/ accuracy of determining which image is bigger (may or may not correspond to real world proportions)","No","stimuli/14-Congruent.jpg","z","","","","","left","z","true"
"","null","html-keyboard-response","206","2.0.0","184286","p01pepaop6w","bigger","gorilla","To test whether real-world knowledge of which object is bigger affects participant speed/ accuracy of determining which image is bigger (may or may not correspond to real world proportions)","No","<p>Correct!</p>","null","","","","","","",""
"","null","html-keyboard-response","207","2.0.0","185291","p01pepaop6w","bigger","gorilla","To test whether real-world knowledge of which object is bigger affects participant speed/ accuracy of determining which image is bigger (may or may not correspond to real world proportions)","No","<div style=""font-size:60px;"">+</div>","null","","","","","","",""
"","294","image-keyboard-response","208","2.0.0","185587","p01pepaop6w","bigger","gorilla","To test whether real-world knowledge of which object is bigger affects participant speed/ accuracy of determining which image is bigger (may or may not correspond to real world proportions)","No","stimuli/6-Inongruent.jpg","m","","","","","right","m","true"
"","null","html-keyboard-response","209","2.0.0","186497","p01pepaop6w","bigger","gorilla","To test whether real-world knowledge of which object is bigger affects participant speed/ accuracy of determining which image is bigger (may or may not correspond to real world proportions)","No","<p>Correct!</p>","null","","","","","","",""
"","null","html-keyboard-response","210","2.0.0","187508","p01pepaop6w","bigger","gorilla","To test whether real-world knowledge of which object is bigger affects participant speed/ accuracy of determining which image is bigger (may or may not correspond to real world proportions)","No","<div style=""font-size:60px;"">+</div>","null","","","","","","",""
"","380","image-keyboard-response","211","2.0.0","187891","p01pepaop6w","bigger","gorilla","To test whether real-world knowledge of which object is bigger affects participant speed/ accuracy of determining which image is bigger (may or may not correspond to real world proportions)","No","stimuli/28-Inongruent.jpg","m","","","","","right","m","true"
"","null","html-keyboard-response","212","2.0.0","188794","p01pepaop6w","bigger","gorilla","To test whether real-world knowledge of which object is bigger affects participant speed/ accuracy of determining which image is bigger (may or may not correspond to real world proportions)","No","<p>Correct!</p>","null","","","","","","",""
"","null","html-keyboard-response","213","2.0.0","189798","p01pepaop6w","bigger","gorilla","To test whether real-world knowledge of which object is bigger affects participant speed/ accuracy of determining which image is bigger (may or may not correspond to real world proportions)","No","<div style=""font-size:60px;"">+</div>","null","","","","","","",""
"","414","image-keyboard-response","214","2.0.0","190217","p01pepaop6w","bigger","gorilla","To test whether real-world knowledge of which object is bigger affects participant speed/ accuracy of determining which image is bigger (may or may not correspond to real world proportions)","No","stimuli/20-Congruent.jpg","z","","","","","left","z","true"
"","null","html-keyboard-response","215","2.0.0","191127","p01pepaop6w","bigger","gorilla","To test whether real-world knowledge of which object is bigger affects participant speed/ accuracy of determining which image is bigger (may or may not correspond to real world proportions)","No","<p>Correct!</p>","null","","","","","","",""
"","null","html-keyboard-response","216","2.0.0","192144","p01pepaop6w","bigger","gorilla","To test whether real-world knowledge of which object is bigger affects participant speed/ accuracy of determining which image is bigger (may or may not correspond to real world proportions)","No","<div style=""font-size:60px;"">+</div>","null","","","","","","",""
"","329","image-keyboard-response","217","2.0.0","192476","p01pepaop6w","bigger","gorilla","To test whether real-world knowledge of which object is bigger affects participant speed/ accuracy of determining which image is bigger (may or may not correspond to real world proportions)","No","stimuli/20-Inongruent.jpg","m","","","","","right","m","true"
"","null","html-keyboard-response","218","2.0.0","193387","p01pepaop6w","bigger","gorilla","To test whether real-world knowledge of which object is bigger affects participant speed/ accuracy of determining which image is bigger (may or may not correspond to real world proportions)","No","<p>Correct!</p>","null","","","","","","",""
"","null","html-keyboard-response","219","2.0.0","194402","p01pepaop6w","bigger","gorilla","To test whether real-world knowledge of which object is bigger affects participant speed/ accuracy of determining which image is bigger (may or may not correspond to real world proportions)","No","<div style=""font-size:60px;"">+</div>","null","","","","","","",""
"","370","image-keyboard-response","220","2.0.0","194775","p01pepaop6w","bigger","gorilla","To test whether real-world knowledge of which object is bigger affects participant speed/ accuracy of determining which image is bigger (may or may not correspond to real world proportions)","No","stimuli/26-Congruent.jpg","z","","","","","left","z","true"
"","null","html-keyboard-response","221","2.0.0","195684","p01pepaop6w","bigger","gorilla","To test whether real-world knowledge of which object is bigger affects participant speed/ accuracy of determining which image is bigger (may or may not correspond to real world proportions)","No","<p>Correct!</p>","null","","","","","","",""
"","null","html-keyboard-response","222","2.0.0","196687","p01pepaop6w","bigger","gorilla","To test whether real-world knowledge of which object is bigger affects participant speed/ accuracy of determining which image is bigger (may or may not correspond to real world proportions)","No","<div style=""font-size:60px;"">+</div>","null","","","","","","",""
"","234","image-keyboard-response","223","2.0.0","196921","p01pepaop6w","bigger","gorilla","To test whether real-world knowledge of which object is bigger affects participant speed/ accuracy of determining which image is bigger (may or may not correspond to real world proportions)","No","stimuli/19-Inongruent.jpg","m","","","","","right","m","true"
"","null","html-keyboard-response","224","2.0.0","197830","p01pepaop6w","bigger","gorilla","To test whether real-world knowledge of which object is bigger affects participant speed/ accuracy of determining which image is bigger (may or may not correspond to real world proportions)","No","<p>Correct!</p>","null","","","","","","",""
"","null","html-keyboard-response","225","2.0.0","198834","p01pepaop6w","bigger","gorilla","To test whether real-world knowledge of which object is bigger affects participant speed/ accuracy of determining which image is bigger (may or may not correspond to real world proportions)","No","<div style=""font-size:60px;"">+</div>","null","","","","","","",""
"","416","image-keyboard-response","226","2.0.0","199251","p01pepaop6w","bigger","gorilla","To test whether real-world knowledge of which object is bigger affects participant speed/ accuracy of determining which image is bigger (may or may not correspond to real world proportions)","No","stimuli/21-Inongruent.jpg","m","","","","","right","m","true"
"","null","html-keyboard-response","227","2.0.0","200159","p01pepaop6w","bigger","gorilla","To test whether real-world knowledge of which object is bigger affects participant speed/ accuracy of determining which image is bigger (may or may not correspond to real world proportions)","No","<p>Correct!</p>","null","","","","","","",""
"","null","html-keyboard-response","228","2.0.0","201173","p01pepaop6w","bigger","gorilla","To test whether real-world knowledge of which object is bigger affects participant speed/ accuracy of determining which image is bigger (may or may not correspond to real world proportions)","No","<div style=""font-size:60px;"">+</div>","null","","","","","","",""
"","343","image-keyboard-response","229","2.0.0","201518","p01pepaop6w","bigger","gorilla","To test whether real-world knowledge of which object is bigger affects participant speed/ accuracy of determining which image is bigger (may or may not correspond to real world proportions)","No","stimuli/25-Inongruent.jpg","m","","","","","right","m","true"
"","null","html-keyboard-response","230","2.0.0","202424","p01pepaop6w","bigger","gorilla","To test whether real-world knowledge of which object is bigger affects participant speed/ accuracy of determining which image is bigger (may or may not correspond to real world proportions)","No","<p>Correct!</p>","null","","","","","","",""
"","null","html-keyboard-response","231","2.0.0","203432","p01pepaop6w","bigger","gorilla","To test whether real-world knowledge of which object is bigger affects participant speed/ accuracy of determining which image is bigger (may or may not correspond to real world proportions)","No","<div style=""font-size:60px;"">+</div>","null","","","","","","",""
"","444","image-keyboard-response","232","2.0.0","203877","p01pepaop6w","bigger","gorilla","To test whether real-world knowledge of which object is bigger affects participant speed/ accuracy of determining which image is bigger (may or may not correspond to real world proportions)","No","stimuli/18-Inongruent.jpg","m","","","","","right","m","true"
"","null","html-keyboard-response","233","2.0.0","204785","p01pepaop6w","bigger","gorilla","To test whether real-world knowledge of which object is bigger affects participant speed/ accuracy of determining which image is bigger (may or may not correspond to real world proportions)","No","<p>Correct!</p>","null","","","","","","",""
"","null","html-keyboard-response","234","2.0.0","205800","p01pepaop6w","bigger","gorilla","To test whether real-world knowledge of which object is bigger affects participant speed/ accuracy of determining which image is bigger (may or may not correspond to real world proportions)","No","<div style=""font-size:60px;"">+</div>","null","","","","","","",""
"","421","image-keyboard-response","235","2.0.0","206223","p01pepaop6w","bigger","gorilla","To test whether real-world knowledge of which object is bigger affects participant speed/ accuracy of determining which image is bigger (may or may not correspond to real world proportions)","No","stimuli/25-Congruent.jpg","z","","","","","left","z","true"
"","null","html-keyboard-response","236","2.0.0","207129","p01pepaop6w","bigger","gorilla","To test whether real-world knowledge of which object is bigger affects participant speed/ accuracy of determining which image is bigger (may or may not correspond to real world proportions)","No","<p>Correct!</p>","null","","","","","","",""
"","null","html-keyboard-response","237","2.0.0","208144","p01pepaop6w","bigger","gorilla","To test whether real-world knowledge of which object is bigger affects participant speed/ accuracy of determining which image is bigger (may or may not correspond to real world proportions)","No","<div style=""font-size:60px;"">+</div>","null","","","","","","",""
"","385","image-keyboard-response","238","2.0.0","208530","p01pepaop6w","bigger","gorilla","To test whether real-world knowledge of which object is bigger affects participant speed/ accuracy of determining which image is bigger (may or may not correspond to real world proportions)","No","stimuli/6-Congruent.jpg","z","","","","","left","z","true"
"","null","html-keyboard-response","239","2.0.0","209433","p01pepaop6w","bigger","gorilla","To test whether real-world knowledge of which object is bigger affects participant speed/ accuracy of determining which image is bigger (may or may not correspond to real world proportions)","No","<p>Correct!</p>","null","","","","","","",""
"","null","html-keyboard-response","240","2.0.0","210450","p01pepaop6w","bigger","gorilla","To test whether real-world knowledge of which object is bigger affects participant speed/ accuracy of determining which image is bigger (may or may not correspond to real world proportions)","No","<div style=""font-size:60px;"">+</div>","null","","","","","","",""
"","403","image-keyboard-response","241","2.0.0","210856","p01pepaop6w","bigger","gorilla","To test whether real-world knowledge of which object is bigger affects participant speed/ accuracy of determining which image is bigger (may or may not correspond to real world proportions)","No","stimuli/9-Congruent.jpg","z","","","","","left","z","true"
"","null","html-keyboard-response","242","2.0.0","211766","p01pepaop6w","bigger","gorilla","To test whether real-world knowledge of which object is bigger affects participant speed/ accuracy of determining which image is bigger (may or may not correspond to real world proportions)","No","<p>Correct!</p>","null","","","","","","",""
"","null","html-keyboard-response","243","2.0.0","212774","p01pepaop6w","bigger","gorilla","To test whether real-world knowledge of which object is bigger affects participant speed/ accuracy of determining which image is bigger (may or may not correspond to real world proportions)","No","<div style=""font-size:60px;"">+</div>","null","","","","","","",""
"","612","image-keyboard-response","244","2.0.0","213389","p01pepaop6w","bigger","gorilla","To test whether real-world knowledge of which object is bigger affects participant speed/ accuracy of determining which image is bigger (may or may not correspond to real world proportions)","No","stimuli/29-Congruent.jpg","z","","","","","left","z","true"
"","null","html-keyboard-response","245","2.0.0","214300","p01pepaop6w","bigger","gorilla","To test whether real-world knowledge of which object is bigger affects participant speed/ accuracy of determining which image is bigger (may or may not correspond to real world proportions)","No","<p>Correct!</p>","null","","","","","","",""
"","null","html-keyboard-response","246","2.0.0","215317","p01pepaop6w","bigger","gorilla","To test whether real-world knowledge of which object is bigger affects participant speed/ accuracy of determining which image is bigger (may or may not correspond to real world proportions)","No","<div style=""font-size:60px;"">+</div>","null","","","","","","",""
"","393","image-keyboard-response","247","2.0.0","215714","p01pepaop6w","bigger","gorilla","To test whether real-world knowledge of which object is bigger affects participant speed/ accuracy of determining which image is bigger (may or may not correspond to real world proportions)","No","stimuli/23-Inongruent.jpg","m","","","","","right","m","true"
"","null","html-keyboard-response","248","2.0.0","216623","p01pepaop6w","bigger","gorilla","To test whether real-world knowledge of which object is bigger affects participant speed/ accuracy of determining which image is bigger (may or may not correspond to real world proportions)","No","<p>Correct!</p>","null","","","","","","",""
"","null","html-keyboard-response","249","2.0.0","217640","p01pepaop6w","bigger","gorilla","To test whether real-world knowledge of which object is bigger affects participant speed/ accuracy of determining which image is bigger (may or may not correspond to real world proportions)","No","<div style=""font-size:60px;"">+</div>","null","","","","","","",""
"","383","image-keyboard-response","250","2.0.0","218026","p01pepaop6w","bigger","gorilla","To test whether real-world knowledge of which object is bigger affects participant speed/ accuracy of determining which image is bigger (may or may not correspond to real world proportions)","No","stimuli/2-Inongruent.jpg","m","","","","","right","m","true"
"","null","html-keyboard-response","251","2.0.0","218937","p01pepaop6w","bigger","gorilla","To test whether real-world knowledge of which object is bigger affects participant speed/ accuracy of determining which image is bigger (may or may not correspond to real world proportions)","No","<p>Correct!</p>","null","","","","","","",""
"","null","html-keyboard-response","252","2.0.0","219942","p01pepaop6w","bigger","gorilla","To test whether real-world knowledge of which object is bigger affects participant speed/ accuracy of determining which image is bigger (may or may not correspond to real world proportions)","No","<div style=""font-size:60px;"">+</div>","null","","","","","","",""
"","410","image-keyboard-response","253","2.0.0","220355","p01pepaop6w","bigger","gorilla","To test whether real-world knowledge of which object is bigger affects participant speed/ accuracy of determining which image is bigger (may or may not correspond to real world proportions)","No","stimuli/5-Congruent.jpg","z","","","","","left","z","true"
"","null","html-keyboard-response","254","2.0.0","221272","p01pepaop6w","bigger","gorilla","To test whether real-world knowledge of which object is bigger affects participant speed/ accuracy of determining which image is bigger (may or may not correspond to real world proportions)","No","<p>Correct!</p>","null","","","","","","",""
"","null","html-keyboard-response","255","2.0.0","222274","p01pepaop6w","bigger","gorilla","To test whether real-world knowledge of which object is bigger affects participant speed/ accuracy of determining which image is bigger (may or may not correspond to real world proportions)","No","<div style=""font-size:60px;"">+</div>","null","","","","","","",""
"","349","image-keyboard-response","256","2.0.0","222625","p01pepaop6w","bigger","gorilla","To test whether real-world knowledge of which object is bigger affects participant speed/ accuracy of determining which image is bigger (may or may not correspond to real world proportions)","No","stimuli/12-Inongruent.jpg","m","","","","","right","m","true"
"","null","html-keyboard-response","257","2.0.0","223535","p01pepaop6w","bigger","gorilla","To test whether real-world knowledge of which object is bigger affects participant speed/ accuracy of determining which image is bigger (may or may not correspond to real world proportions)","No","<p>Correct!</p>","null","","","","","","",""
"","null","html-keyboard-response","258","2.0.0","224555","p01pepaop6w","bigger","gorilla","To test whether real-world knowledge of which object is bigger affects participant speed/ accuracy of determining which image is bigger (may or may not correspond to real world proportions)","No","<div style=""font-size:60px;"">+</div>","null","","","","","","",""
"","417","image-keyboard-response","259","2.0.0","224975","p01pepaop6w","bigger","gorilla","To test whether real-world knowledge of which object is bigger affects participant speed/ accuracy of determining which image is bigger (may or may not correspond to real world proportions)","No","stimuli/36-Congruent.jpg","z","","","","","left","z","true"
"","null","html-keyboard-response","260","2.0.0","225882","p01pepaop6w","bigger","gorilla","To test whether real-world knowledge of which object is bigger affects participant speed/ accuracy of determining which image is bigger (may or may not correspond to real world proportions)","No","<p>Correct!</p>","null","","","","","","",""
"","null","html-keyboard-response","261","2.0.0","226899","p01pepaop6w","bigger","gorilla","To test whether real-world knowledge of which object is bigger affects participant speed/ accuracy of determining which image is bigger (may or may not correspond to real world proportions)","No","<div style=""font-size:60px;"">+</div>","null","","","","","","",""
"","352","image-keyboard-response","262","2.0.0","227253","p01pepaop6w","bigger","gorilla","To test whether real-world knowledge of which object is bigger affects participant speed/ accuracy of determining which image is bigger (may or may not correspond to real world proportions)","No","stimuli/23-Inongruent.jpg","m","","","","","right","m","true"
"","null","html-keyboard-response","263","2.0.0","228165","p01pepaop6w","bigger","gorilla","To test whether real-world knowledge of which object is bigger affects participant speed/ accuracy of determining which image is bigger (may or may not correspond to real world proportions)","No","<p>Correct!</p>","null","","","","","","",""
"","null","html-keyboard-response","264","2.0.0","229167","p01pepaop6w","bigger","gorilla","To test whether real-world knowledge of which object is bigger affects participant speed/ accuracy of determining which image is bigger (may or may not correspond to real world proportions)","No","<div style=""font-size:60px;"">+</div>","null","","","","","","",""
"","554","image-keyboard-response","265","2.0.0","229724","p01pepaop6w","bigger","gorilla","To test whether real-world knowledge of which object is bigger affects participant speed/ accuracy of determining which image is bigger (may or may not correspond to real world proportions)","No","stimuli/21-Inongruent.jpg","z","","","","","right","m","false"
"","null","html-keyboard-response","266","2.0.0","234732","p01pepaop6w","bigger","gorilla","To test whether real-world knowledge of which object is bigger affects participant speed/ accuracy of determining which image is bigger (may or may not correspond to real world proportions)","No","<p>Incorrect.</p><p>Remember to select the <b>bigger</b> image.</p><p>Continuing in 5 seconds...</p>","null","","","","","","",""
"","null","html-keyboard-response","267","2.0.0","235739","p01pepaop6w","bigger","gorilla","To test whether real-world knowledge of which object is bigger affects participant speed/ accuracy of determining which image is bigger (may or may not correspond to real world proportions)","No","<div style=""font-size:60px;"">+</div>","null","","","","","","",""
"","1486","image-keyboard-response","268","2.0.0","237227","p01pepaop6w","bigger","gorilla","To test whether real-world knowledge of which object is bigger affects participant speed/ accuracy of determining which image is bigger (may or may not correspond to real world proportions)","No","stimuli/2-Congruent.jpg","z","","","","","left","z","true"
"","null","html-keyboard-response","269","2.0.0","238135","p01pepaop6w","bigger","gorilla","To test whether real-world knowledge of which object is bigger affects participant speed/ accuracy of determining which image is bigger (may or may not correspond to real world proportions)","No","<p>Correct!</p>","null","","","","","","",""
"","null","html-keyboard-response","270","2.0.0","239142","p01pepaop6w","bigger","gorilla","To test whether real-world knowledge of which object is bigger affects participant speed/ accuracy of determining which image is bigger (may or may not correspond to real world proportions)","No","<div style=""font-size:60px;"">+</div>","null","","","","","","",""
"","434","image-keyboard-response","271","2.0.0","239578","p01pepaop6w","bigger","gorilla","To test whether real-world knowledge of which object is bigger affects participant speed/ accuracy of determining which image is bigger (may or may not correspond to real world proportions)","No","stimuli/5-Congruent.jpg","z","","","","","left","z","true"
"","null","html-keyboard-response","272","2.0.0","240490","p01pepaop6w","bigger","gorilla","To test whether real-world knowledge of which object is bigger affects participant speed/ accuracy of determining which image is bigger (may or may not correspond to real world proportions)","No","<p>Correct!</p>","null","","","","","","",""
"","null","html-keyboard-response","273","2.0.0","241504","p01pepaop6w","bigger","gorilla","To test whether real-world knowledge of which object is bigger affects participant speed/ accuracy of determining which image is bigger (may or may not correspond to real world proportions)","No","<div style=""font-size:60px;"">+</div>","null","","","","","","",""
"","981","image-keyboard-response","274","2.0.0","242488","p01pepaop6w","bigger","gorilla","To test whether real-world knowledge of which object is bigger affects participant speed/ accuracy of determining which image is bigger (may or may not correspond to real world proportions)","No","stimuli/35-Congruent.jpg","z","","","","","left","z","true"
"","null","html-keyboard-response","275","2.0.0","243394","p01pepaop6w","bigger","gorilla","To test whether real-world knowledge of which object is bigger affects participant speed/ accuracy of determining which image is bigger (may or may not correspond to real world proportions)","No","<p>Correct!</p>","null","","","","","","",""
"","null","html-keyboard-response","276","2.0.0","244399","p01pepaop6w","bigger","gorilla","To test whether real-world knowledge of which object is bigger affects participant speed/ accuracy of determining which image is bigger (may or may not correspond to real world proportions)","No","<div style=""font-size:60px;"">+</div>","null","","","","","","",""
"","723","image-keyboard-response","277","2.0.0","245125","p01pepaop6w","bigger","gorilla","To test whether real-world knowledge of which object is bigger affects participant speed/ accuracy of determining which image is bigger (may or may not correspond to real world proportions)","No","stimuli/33-Congruent.jpg","z","","","","","left","z","true"
"","null","html-keyboard-response","278","2.0.0","246032","p01pepaop6w","bigger","gorilla","To test whether real-world knowledge of which object is bigger affects participant speed/ accuracy of determining which image is bigger (may or may not correspond to real world proportions)","No","<p>Correct!</p>","null","","","","","","",""
"","null","html-keyboard-response","279","2.0.0","247037","p01pepaop6w","bigger","gorilla","To test whether real-world knowledge of which object is bigger affects participant speed/ accuracy of determining which image is bigger (may or may not correspond to real world proportions)","No","<div style=""font-size:60px;"">+</div>","null","","","","","","",""
"","423","image-keyboard-response","280","2.0.0","247462","p01pepaop6w","bigger","gorilla","To test whether real-world knowledge of which object is bigger affects participant speed/ accuracy of determining which image is bigger (may or may not correspond to real world proportions)","No","stimuli/29-Inongruent.jpg","m","","","","","right","m","true"
"","null","html-keyboard-response","281","2.0.0","248378","p01pepaop6w","bigger","gorilla","To test whether real-world knowledge of which object is bigger affects participant speed/ accuracy of determining which image is bigger (may or may not correspond to real world proportions)","No","<p>Correct!</p>","null","","","","","","",""
"","null","html-keyboard-response","282","2.0.0","249383","p01pepaop6w","bigger","gorilla","To test whether real-world knowledge of which object is bigger affects participant speed/ accuracy of determining which image is bigger (may or may not correspond to real world proportions)","No","<div style=""font-size:60px;"">+</div>","null","","","","","","",""
"","370","image-keyboard-response","283","2.0.0","249757","p01pepaop6w","bigger","gorilla","To test whether real-world knowledge of which object is bigger affects participant speed/ accuracy of determining which image is bigger (may or may not correspond to real world proportions)","No","stimuli/7-Congruent.jpg","z","","","","","left","z","true"
"","null","html-keyboard-response","284","2.0.0","250667","p01pepaop6w","bigger","gorilla","To test whether real-world knowledge of which object is bigger affects participant speed/ accuracy of determining which image is bigger (may or may not correspond to real world proportions)","No","<p>Correct!</p>","null","","","","","","",""
"","null","html-keyboard-response","285","2.0.0","251672","p01pepaop6w","bigger","gorilla","To test whether real-world knowledge of which object is bigger affects participant speed/ accuracy of determining which image is bigger (may or may not correspond to real world proportions)","No","<div style=""font-size:60px;"">+</div>","null","","","","","","",""
