"success","rt","trial_type","trial_index","plugin_version","time_elapsed","random_id","condition","participant","participant_thoughts","participant_difficulties","stimulus","response","timeout","failed_images","failed_audio","failed_video","correct_response","correct_response_key","correct"
"true","1326","fullscreen","0","null","2328","p0c3y7vydr1","smaller","raccoon","see how size affects our perception","no","","","","","","","","",""
"","5018","html-keyboard-response","1","2.0.0","7346","p0c3y7vydr1","smaller","raccoon","see how size affects our perception","no","Welcome to the Size Stroop experiment. Press any key to begin.","b","","","","","","",""
"","null","html-keyboard-response","2","2.0.0","8359","p0c3y7vydr1","smaller","raccoon","see how size affects our perception","no","This trial will be in fullscreen mode.","null","","","","","","",""
"","2930","survey-text","3","2.0.0","11290","p0c3y7vydr1","smaller","raccoon","see how size affects our perception","no","","{""participant_id"":""raccoon""}","","","","","","",""
"","1431","html-keyboard-response","4","2.0.0","12722","p0c3y7vydr1","smaller","raccoon","see how size affects our perception","no","<p>In this experiment, two images will appear on the screen. Identify the <strong>smaller</strong> image.</p>
              <p>If the image on the left is smaller, press ""z"". If the image on the right is smaller, press ""m"".</p>
              <p>Press any key to begin.</p>"," ","","","","","","",""
"true","","preload","5","2.0.0","13056","p0c3y7vydr1","smaller","raccoon","see how size affects our perception","no","","","false","[]","[]","[]","","",""
"","null","html-keyboard-response","6","2.0.0","14070","p0c3y7vydr1","smaller","raccoon","see how size affects our perception","no","<div style=""font-size:60px;"">+</div>","null","","","","","","",""
"","808","image-keyboard-response","7","2.0.0","14882","p0c3y7vydr1","smaller","raccoon","see how size affects our perception","no","stimuli/13-Inongruent.jpg","m","","","","","left","z","false"
"","null","html-keyboard-response","8","2.0.0","19891","p0c3y7vydr1","smaller","raccoon","see how size affects our perception","no","<p>Incorrect.</p><p>Remember to select the <b>smaller</b> image.</p><p>Continuing in 5 seconds...</p>","null","","","","","","",""
"","null","html-keyboard-response","9","2.0.0","20906","p0c3y7vydr1","smaller","raccoon","see how size affects our perception","no","<div style=""font-size:60px;"">+</div>","null","","","","","","",""
"","662","image-keyboard-response","10","2.0.0","21570","p0c3y7vydr1","smaller","raccoon","see how size affects our perception","no","stimuli/22-Congruent.jpg","m","","","","","right","m","true"
"","null","html-keyboard-response","11","2.0.0","22475","p0c3y7vydr1","smaller","raccoon","see how size affects our perception","no","<p>Correct!</p>","null","","","","","","",""
"","null","html-keyboard-response","12","2.0.0","23487","p0c3y7vydr1","smaller","raccoon","see how size affects our perception","no","<div style=""font-size:60px;"">+</div>","null","","","","","","",""
"","545","image-keyboard-response","13","2.0.0","24034","p0c3y7vydr1","smaller","raccoon","see how size affects our perception","no","stimuli/26-Inongruent.jpg","z","","","","","left","z","true"
"","null","html-keyboard-response","14","2.0.0","24939","p0c3y7vydr1","smaller","raccoon","see how size affects our perception","no","<p>Correct!</p>","null","","","","","","",""
"","null","html-keyboard-response","15","2.0.0","25953","p0c3y7vydr1","smaller","raccoon","see how size affects our perception","no","<div style=""font-size:60px;"">+</div>","null","","","","","","",""
"","823","image-keyboard-response","16","2.0.0","26778","p0c3y7vydr1","smaller","raccoon","see how size affects our perception","no","stimuli/1-Congruent.jpg","m","","","","","right","m","true"
"","null","html-keyboard-response","17","2.0.0","27683","p0c3y7vydr1","smaller","raccoon","see how size affects our perception","no","<p>Correct!</p>","null","","","","","","",""
"","null","html-keyboard-response","18","2.0.0","28685","p0c3y7vydr1","smaller","raccoon","see how size affects our perception","no","<div style=""font-size:60px;"">+</div>","null","","","","","","",""
"","651","image-keyboard-response","19","2.0.0","29338","p0c3y7vydr1","smaller","raccoon","see how size affects our perception","no","stimuli/24-Congruent.jpg","m","","","","","right","m","true"
"","null","html-keyboard-response","20","2.0.0","30241","p0c3y7vydr1","smaller","raccoon","see how size affects our perception","no","<p>Correct!</p>","null","","","","","","",""
"","null","html-keyboard-response","21","2.0.0","31252","p0c3y7vydr1","smaller","raccoon","see how size affects our perception","no","<div style=""font-size:60px;"">+</div>","null","","","","","","",""
"","429","image-keyboard-response","22","2.0.0","31682","p0c3y7vydr1","smaller","raccoon","see how size affects our perception","no","stimuli/17-Congruent.jpg","m","","","","","right","m","true"
"","null","html-keyboard-response","23","2.0.0","32585","p0c3y7vydr1","smaller","raccoon","see how size affects our perception","no","<p>Correct!</p>","null","","","","","","",""
"","null","html-keyboard-response","24","2.0.0","33594","p0c3y7vydr1","smaller","raccoon","see how size affects our perception","no","<div style=""font-size:60px;"">+</div>","null","","","","","","",""
"","446","image-keyboard-response","25","2.0.0","34042","p0c3y7vydr1","smaller","raccoon","see how size affects our perception","no","stimuli/4-Inongruent.jpg","z","","","","","left","z","true"
"","null","html-keyboard-response","26","2.0.0","34953","p0c3y7vydr1","smaller","raccoon","see how size affects our perception","no","<p>Correct!</p>","null","","","","","","",""
"","null","html-keyboard-response","27","2.0.0","35967","p0c3y7vydr1","smaller","raccoon","see how size affects our perception","no","<div style=""font-size:60px;"">+</div>","null","","","","","","",""
"","361","image-keyboard-response","28","2.0.0","36330","p0c3y7vydr1","smaller","raccoon","see how size affects our perception","no","stimuli/20-Congruent.jpg","m","","","","","right","m","true"
"","null","html-keyboard-response","29","2.0.0","37234","p0c3y7vydr1","smaller","raccoon","see how size affects our perception","no","<p>Correct!</p>","null","","","","","","",""
"","null","html-keyboard-response","30","2.0.0","38242","p0c3y7vydr1","smaller","raccoon","see how size affects our perception","no","<div style=""font-size:60px;"">+</div>","null","","","","","","",""
"","334","image-keyboard-response","31","2.0.0","38578","p0c3y7vydr1","smaller","raccoon","see how size affects our perception","no","stimuli/34-Congruent.jpg","m","","","","","right","m","true"
"","null","html-keyboard-response","32","2.0.0","39494","p0c3y7vydr1","smaller","raccoon","see how size affects our perception","no","<p>Correct!</p>","null","","","","","","",""
"","null","html-keyboard-response","33","2.0.0","40506","p0c3y7vydr1","smaller","raccoon","see how size affects our perception","no","<div style=""font-size:60px;"">+</div>","null","","","","","","",""
"","366","image-keyboard-response","34","2.0.0","40874","p0c3y7vydr1","smaller","raccoon","see how size affects our perception","no","stimuli/30-Congruent.jpg","m","","","","","right","m","true"
"","null","html-keyboard-response","35","2.0.0","41775","p0c3y7vydr1","smaller","raccoon","see how size affects our perception","no","<p>Correct!</p>","null","","","","","","",""
"","null","html-keyboard-response","36","2.0.0","42790","p0c3y7vydr1","smaller","raccoon","see how size affects our perception","no","<div style=""font-size:60px;"">+</div>","null","","","","","","",""
"","13754","image-keyboard-response","37","2.0.0","56546","p0c3y7vydr1","smaller","raccoon","see how size affects our perception","no","stimuli/24-Congruent.jpg","m","","","","","right","m","true"
"","null","html-keyboard-response","38","2.0.0","57457","p0c3y7vydr1","smaller","raccoon","see how size affects our perception","no","<p>Correct!</p>","null","","","","","","",""
"","null","html-keyboard-response","39","2.0.0","58472","p0c3y7vydr1","smaller","raccoon","see how size affects our perception","no","<div style=""font-size:60px;"">+</div>","null","","","","","","",""
"","1576","image-keyboard-response","40","2.0.0","60050","p0c3y7vydr1","smaller","raccoon","see how size affects our perception","no","stimuli/23-Inongruent.jpg","z","","","","","left","z","true"
"","null","html-keyboard-response","41","2.0.0","60965","p0c3y7vydr1","smaller","raccoon","see how size affects our perception","no","<p>Correct!</p>","null","","","","","","",""
"","null","html-keyboard-response","42","2.0.0","61979","p0c3y7vydr1","smaller","raccoon","see how size affects our perception","no","<div style=""font-size:60px;"">+</div>","null","","","","","","",""
"","525","image-keyboard-response","43","2.0.0","62506","p0c3y7vydr1","smaller","raccoon","see how size affects our perception","no","stimuli/19-Inongruent.jpg","z","","","","","left","z","true"
"","null","html-keyboard-response","44","2.0.0","63420","p0c3y7vydr1","smaller","raccoon","see how size affects our perception","no","<p>Correct!</p>","null","","","","","","",""
"","null","html-keyboard-response","45","2.0.0","64436","p0c3y7vydr1","smaller","raccoon","see how size affects our perception","no","<div style=""font-size:60px;"">+</div>","null","","","","","","",""
"","829","image-keyboard-response","46","2.0.0","65266","p0c3y7vydr1","smaller","raccoon","see how size affects our perception","no","stimuli/32-Congruent.jpg","m","","","","","right","m","true"
"","null","html-keyboard-response","47","2.0.0","66180","p0c3y7vydr1","smaller","raccoon","see how size affects our perception","no","<p>Correct!</p>","null","","","","","","",""
"","null","html-keyboard-response","48","2.0.0","67196","p0c3y7vydr1","smaller","raccoon","see how size affects our perception","no","<div style=""font-size:60px;"">+</div>","null","","","","","","",""
"","581","image-keyboard-response","49","2.0.0","67778","p0c3y7vydr1","smaller","raccoon","see how size affects our perception","no","stimuli/6-Congruent.jpg","m","","","","","right","m","true"
"","null","html-keyboard-response","50","2.0.0","68681","p0c3y7vydr1","smaller","raccoon","see how size affects our perception","no","<p>Correct!</p>","null","","","","","","",""
"","null","html-keyboard-response","51","2.0.0","69695","p0c3y7vydr1","smaller","raccoon","see how size affects our perception","no","<div style=""font-size:60px;"">+</div>","null","","","","","","",""
"","1018","image-keyboard-response","52","2.0.0","70714","p0c3y7vydr1","smaller","raccoon","see how size affects our perception","no","stimuli/34-Inongruent.jpg","z","","","","","left","z","true"
"","null","html-keyboard-response","53","2.0.0","71628","p0c3y7vydr1","smaller","raccoon","see how size affects our perception","no","<p>Correct!</p>","null","","","","","","",""
"","null","html-keyboard-response","54","2.0.0","72642","p0c3y7vydr1","smaller","raccoon","see how size affects our perception","no","<div style=""font-size:60px;"">+</div>","null","","","","","","",""
"","335","image-keyboard-response","55","2.0.0","72978","p0c3y7vydr1","smaller","raccoon","see how size affects our perception","no","stimuli/18-Congruent.jpg","m","","","","","right","m","true"
"","null","html-keyboard-response","56","2.0.0","73889","p0c3y7vydr1","smaller","raccoon","see how size affects our perception","no","<p>Correct!</p>","null","","","","","","",""
"","null","html-keyboard-response","57","2.0.0","74897","p0c3y7vydr1","smaller","raccoon","see how size affects our perception","no","<div style=""font-size:60px;"">+</div>","null","","","","","","",""
"","335","image-keyboard-response","58","2.0.0","75234","p0c3y7vydr1","smaller","raccoon","see how size affects our perception","no","stimuli/19-Inongruent.jpg","z","","","","","left","z","true"
"","null","html-keyboard-response","59","2.0.0","76140","p0c3y7vydr1","smaller","raccoon","see how size affects our perception","no","<p>Correct!</p>","null","","","","","","",""
"","null","html-keyboard-response","60","2.0.0","77155","p0c3y7vydr1","smaller","raccoon","see how size affects our perception","no","<div style=""font-size:60px;"">+</div>","null","","","","","","",""
"","374","image-keyboard-response","61","2.0.0","77530","p0c3y7vydr1","smaller","raccoon","see how size affects our perception","no","stimuli/11-Congruent.jpg","m","","","","","right","m","true"
"","null","html-keyboard-response","62","2.0.0","78437","p0c3y7vydr1","smaller","raccoon","see how size affects our perception","no","<p>Correct!</p>","null","","","","","","",""
"","null","html-keyboard-response","63","2.0.0","79440","p0c3y7vydr1","smaller","raccoon","see how size affects our perception","no","<div style=""font-size:60px;"">+</div>","null","","","","","","",""
"","345","image-keyboard-response","64","2.0.0","79786","p0c3y7vydr1","smaller","raccoon","see how size affects our perception","no","stimuli/21-Congruent.jpg","m","","","","","right","m","true"
"","null","html-keyboard-response","65","2.0.0","80689","p0c3y7vydr1","smaller","raccoon","see how size affects our perception","no","<p>Correct!</p>","null","","","","","","",""
"","null","html-keyboard-response","66","2.0.0","81691","p0c3y7vydr1","smaller","raccoon","see how size affects our perception","no","<div style=""font-size:60px;"">+</div>","null","","","","","","",""
"","334","image-keyboard-response","67","2.0.0","82026","p0c3y7vydr1","smaller","raccoon","see how size affects our perception","no","stimuli/32-Inongruent.jpg","z","","","","","left","z","true"
"","null","html-keyboard-response","68","2.0.0","82930","p0c3y7vydr1","smaller","raccoon","see how size affects our perception","no","<p>Correct!</p>","null","","","","","","",""
"","null","html-keyboard-response","69","2.0.0","83944","p0c3y7vydr1","smaller","raccoon","see how size affects our perception","no","<div style=""font-size:60px;"">+</div>","null","","","","","","",""
"","361","image-keyboard-response","70","2.0.0","84306","p0c3y7vydr1","smaller","raccoon","see how size affects our perception","no","stimuli/4-Congruent.jpg","m","","","","","right","m","true"
"","null","html-keyboard-response","71","2.0.0","85209","p0c3y7vydr1","smaller","raccoon","see how size affects our perception","no","<p>Correct!</p>","null","","","","","","",""
"","null","html-keyboard-response","72","2.0.0","86601","p0c3y7vydr1","smaller","raccoon","see how size affects our perception","no","<div style=""font-size:60px;"">+</div>","null","","","","","","",""
"","3808","image-keyboard-response","73","2.0.0","90410","p0c3y7vydr1","smaller","raccoon","see how size affects our perception","no","stimuli/8-Congruent.jpg","m","","","","","right","m","true"
"","null","html-keyboard-response","74","2.0.0","91313","p0c3y7vydr1","smaller","raccoon","see how size affects our perception","no","<p>Correct!</p>","null","","","","","","",""
"","null","html-keyboard-response","75","2.0.0","92324","p0c3y7vydr1","smaller","raccoon","see how size affects our perception","no","<div style=""font-size:60px;"">+</div>","null","","","","","","",""
"","437","image-keyboard-response","76","2.0.0","92762","p0c3y7vydr1","smaller","raccoon","see how size affects our perception","no","stimuli/5-Congruent.jpg","m","","","","","right","m","true"
"","null","html-keyboard-response","77","2.0.0","93673","p0c3y7vydr1","smaller","raccoon","see how size affects our perception","no","<p>Correct!</p>","null","","","","","","",""
"","null","html-keyboard-response","78","2.0.0","94678","p0c3y7vydr1","smaller","raccoon","see how size affects our perception","no","<div style=""font-size:60px;"">+</div>","null","","","","","","",""
"","459","image-keyboard-response","79","2.0.0","95138","p0c3y7vydr1","smaller","raccoon","see how size affects our perception","no","stimuli/21-Congruent.jpg","m","","","","","right","m","true"
"","null","html-keyboard-response","80","2.0.0","96048","p0c3y7vydr1","smaller","raccoon","see how size affects our perception","no","<p>Correct!</p>","null","","","","","","",""
"","null","html-keyboard-response","81","2.0.0","97058","p0c3y7vydr1","smaller","raccoon","see how size affects our perception","no","<div style=""font-size:60px;"">+</div>","null","","","","","","",""
"","542","image-keyboard-response","82","2.0.0","97602","p0c3y7vydr1","smaller","raccoon","see how size affects our perception","no","stimuli/10-Inongruent.jpg","z","","","","","left","z","true"
"","null","html-keyboard-response","83","2.0.0","98513","p0c3y7vydr1","smaller","raccoon","see how size affects our perception","no","<p>Correct!</p>","null","","","","","","",""
"","null","html-keyboard-response","84","2.0.0","99523","p0c3y7vydr1","smaller","raccoon","see how size affects our perception","no","<div style=""font-size:60px;"">+</div>","null","","","","","","",""
"","886","image-keyboard-response","85","2.0.0","100410","p0c3y7vydr1","smaller","raccoon","see how size affects our perception","no","stimuli/11-Inongruent.jpg","z","","","","","left","z","true"
"","null","html-keyboard-response","86","2.0.0","101323","p0c3y7vydr1","smaller","raccoon","see how size affects our perception","no","<p>Correct!</p>","null","","","","","","",""
"","null","html-keyboard-response","87","2.0.0","102337","p0c3y7vydr1","smaller","raccoon","see how size affects our perception","no","<div style=""font-size:60px;"">+</div>","null","","","","","","",""
"","62384","image-keyboard-response","88","2.0.0","164722","p0c3y7vydr1","smaller","raccoon","see how size affects our perception","no","stimuli/20-Inongruent.jpg","z","","","","","left","z","true"
"","null","html-keyboard-response","89","2.0.0","165630","p0c3y7vydr1","smaller","raccoon","see how size affects our perception","no","<p>Correct!</p>","null","","","","","","",""
"","null","html-keyboard-response","90","2.0.0","166633","p0c3y7vydr1","smaller","raccoon","see how size affects our perception","no","<div style=""font-size:60px;"">+</div>","null","","","","","","",""
"","656","image-keyboard-response","91","2.0.0","167290","p0c3y7vydr1","smaller","raccoon","see how size affects our perception","no","stimuli/21-Inongruent.jpg","z","","","","","left","z","true"
"","null","html-keyboard-response","92","2.0.0","168193","p0c3y7vydr1","smaller","raccoon","see how size affects our perception","no","<p>Correct!</p>","null","","","","","","",""
"","null","html-keyboard-response","93","2.0.0","169206","p0c3y7vydr1","smaller","raccoon","see how size affects our perception","no","<div style=""font-size:60px;"">+</div>","null","","","","","","",""
"","419","image-keyboard-response","94","2.0.0","169626","p0c3y7vydr1","smaller","raccoon","see how size affects our perception","no","stimuli/29-Congruent.jpg","m","","","","","right","m","true"
"","null","html-keyboard-response","95","2.0.0","170538","p0c3y7vydr1","smaller","raccoon","see how size affects our perception","no","<p>Correct!</p>","null","","","","","","",""
"","null","html-keyboard-response","96","2.0.0","171552","p0c3y7vydr1","smaller","raccoon","see how size affects our perception","no","<div style=""font-size:60px;"">+</div>","null","","","","","","",""
"","337","image-keyboard-response","97","2.0.0","171890","p0c3y7vydr1","smaller","raccoon","see how size affects our perception","no","stimuli/7-Congruent.jpg","m","","","","","right","m","true"
"","null","html-keyboard-response","98","2.0.0","172799","p0c3y7vydr1","smaller","raccoon","see how size affects our perception","no","<p>Correct!</p>","null","","","","","","",""
"","null","html-keyboard-response","99","2.0.0","173815","p0c3y7vydr1","smaller","raccoon","see how size affects our perception","no","<div style=""font-size:60px;"">+</div>","null","","","","","","",""
"","370","image-keyboard-response","100","2.0.0","174186","p0c3y7vydr1","smaller","raccoon","see how size affects our perception","no","stimuli/36-Congruent.jpg","m","","","","","right","m","true"
"","null","html-keyboard-response","101","2.0.0","175101","p0c3y7vydr1","smaller","raccoon","see how size affects our perception","no","<p>Correct!</p>","null","","","","","","",""
"","null","html-keyboard-response","102","2.0.0","176114","p0c3y7vydr1","smaller","raccoon","see how size affects our perception","no","<div style=""font-size:60px;"">+</div>","null","","","","","","",""
"","416","image-keyboard-response","103","2.0.0","176530","p0c3y7vydr1","smaller","raccoon","see how size affects our perception","no","stimuli/28-Congruent.jpg","m","","","","","right","m","true"
"","null","html-keyboard-response","104","2.0.0","177432","p0c3y7vydr1","smaller","raccoon","see how size affects our perception","no","<p>Correct!</p>","null","","","","","","",""
"","null","html-keyboard-response","105","2.0.0","178446","p0c3y7vydr1","smaller","raccoon","see how size affects our perception","no","<div style=""font-size:60px;"">+</div>","null","","","","","","",""
"","339","image-keyboard-response","106","2.0.0","178787","p0c3y7vydr1","smaller","raccoon","see how size affects our perception","no","stimuli/18-Congruent.jpg","m","","","","","right","m","true"
"","null","html-keyboard-response","107","2.0.0","179696","p0c3y7vydr1","smaller","raccoon","see how size affects our perception","no","<p>Correct!</p>","null","","","","","","",""
"","null","html-keyboard-response","108","2.0.0","180709","p0c3y7vydr1","smaller","raccoon","see how size affects our perception","no","<div style=""font-size:60px;"">+</div>","null","","","","","","",""
"","356","image-keyboard-response","109","2.0.0","181067","p0c3y7vydr1","smaller","raccoon","see how size affects our perception","no","stimuli/25-Inongruent.jpg","z","","","","","left","z","true"
"","607","html-keyboard-response","110","2.0.0","181674","p0c3y7vydr1","smaller","raccoon","see how size affects our perception","no","<p>Correct!</p>","Control","","","","","","",""
"","null","html-keyboard-response","111","2.0.0","183653","p0c3y7vydr1","smaller","raccoon","see how size affects our perception","no","<div style=""font-size:60px;"">+</div>","null","","","","","","",""
"","47747","image-keyboard-response","112","2.0.0","231402","p0c3y7vydr1","smaller","raccoon","see how size affects our perception","no","stimuli/35-Congruent.jpg","m","","","","","right","m","true"
"","null","html-keyboard-response","113","2.0.0","232308","p0c3y7vydr1","smaller","raccoon","see how size affects our perception","no","<p>Correct!</p>","null","","","","","","",""
"","null","html-keyboard-response","114","2.0.0","233322","p0c3y7vydr1","smaller","raccoon","see how size affects our perception","no","<div style=""font-size:60px;"">+</div>","null","","","","","","",""
"","527","image-keyboard-response","115","2.0.0","233850","p0c3y7vydr1","smaller","raccoon","see how size affects our perception","no","stimuli/8-Congruent.jpg","m","","","","","right","m","true"
"","null","html-keyboard-response","116","2.0.0","235648","p0c3y7vydr1","smaller","raccoon","see how size affects our perception","no","<p>Correct!</p>","null","","","","","","",""
"","null","html-keyboard-response","117","2.0.0","236664","p0c3y7vydr1","smaller","raccoon","see how size affects our perception","no","<div style=""font-size:60px;"">+</div>","null","","","","","","",""
"","6201","image-keyboard-response","118","2.0.0","242866","p0c3y7vydr1","smaller","raccoon","see how size affects our perception","no","stimuli/31-Congruent.jpg","m","","","","","right","m","true"
"","null","html-keyboard-response","119","2.0.0","243780","p0c3y7vydr1","smaller","raccoon","see how size affects our perception","no","<p>Correct!</p>","null","","","","","","",""
"","null","html-keyboard-response","120","2.0.0","244790","p0c3y7vydr1","smaller","raccoon","see how size affects our perception","no","<div style=""font-size:60px;"">+</div>","null","","","","","","",""
"","419","image-keyboard-response","121","2.0.0","245211","p0c3y7vydr1","smaller","raccoon","see how size affects our perception","no","stimuli/34-Congruent.jpg","m","","","","","right","m","true"
"","null","html-keyboard-response","122","2.0.0","246120","p0c3y7vydr1","smaller","raccoon","see how size affects our perception","no","<p>Correct!</p>","null","","","","","","",""
"","null","html-keyboard-response","123","2.0.0","247133","p0c3y7vydr1","smaller","raccoon","see how size affects our perception","no","<div style=""font-size:60px;"">+</div>","null","","","","","","",""
"","404","image-keyboard-response","124","2.0.0","247539","p0c3y7vydr1","smaller","raccoon","see how size affects our perception","no","stimuli/3-Inongruent.jpg","z","","","","","left","z","true"
"","null","html-keyboard-response","125","2.0.0","248442","p0c3y7vydr1","smaller","raccoon","see how size affects our perception","no","<p>Correct!</p>","null","","","","","","",""
"","null","html-keyboard-response","126","2.0.0","249452","p0c3y7vydr1","smaller","raccoon","see how size affects our perception","no","<div style=""font-size:60px;"">+</div>","null","","","","","","",""
"","366","image-keyboard-response","127","2.0.0","249819","p0c3y7vydr1","smaller","raccoon","see how size affects our perception","no","stimuli/14-Inongruent.jpg","z","","","","","left","z","true"
"","null","html-keyboard-response","128","2.0.0","250732","p0c3y7vydr1","smaller","raccoon","see how size affects our perception","no","<p>Correct!</p>","null","","","","","","",""
"","null","html-keyboard-response","129","2.0.0","251744","p0c3y7vydr1","smaller","raccoon","see how size affects our perception","no","<div style=""font-size:60px;"">+</div>","null","","","","","","",""
"","361","image-keyboard-response","130","2.0.0","252107","p0c3y7vydr1","smaller","raccoon","see how size affects our perception","no","stimuli/24-Inongruent.jpg","z","","","","","left","z","true"
"","null","html-keyboard-response","131","2.0.0","253010","p0c3y7vydr1","smaller","raccoon","see how size affects our perception","no","<p>Correct!</p>","null","","","","","","",""
"","null","html-keyboard-response","132","2.0.0","254023","p0c3y7vydr1","smaller","raccoon","see how size affects our perception","no","<div style=""font-size:60px;"">+</div>","null","","","","","","",""
"","354","image-keyboard-response","133","2.0.0","254379","p0c3y7vydr1","smaller","raccoon","see how size affects our perception","no","stimuli/17-Inongruent.jpg","z","","","","","left","z","true"
"","null","html-keyboard-response","134","2.0.0","255293","p0c3y7vydr1","smaller","raccoon","see how size affects our perception","no","<p>Correct!</p>","null","","","","","","",""
"","null","html-keyboard-response","135","2.0.0","256305","p0c3y7vydr1","smaller","raccoon","see how size affects our perception","no","<div style=""font-size:60px;"">+</div>","null","","","","","","",""
"","385","image-keyboard-response","136","2.0.0","256691","p0c3y7vydr1","smaller","raccoon","see how size affects our perception","no","stimuli/30-Inongruent.jpg","z","","","","","left","z","true"
"","null","html-keyboard-response","137","2.0.0","257600","p0c3y7vydr1","smaller","raccoon","see how size affects our perception","no","<p>Correct!</p>","null","","","","","","",""
"","null","html-keyboard-response","138","2.0.0","258613","p0c3y7vydr1","smaller","raccoon","see how size affects our perception","no","<div style=""font-size:60px;"">+</div>","null","","","","","","",""
"","445","image-keyboard-response","139","2.0.0","259059","p0c3y7vydr1","smaller","raccoon","see how size affects our perception","no","stimuli/24-Inongruent.jpg","z","","","","","left","z","true"
"","null","html-keyboard-response","140","2.0.0","259961","p0c3y7vydr1","smaller","raccoon","see how size affects our perception","no","<p>Correct!</p>","null","","","","","","",""
"","null","html-keyboard-response","141","2.0.0","260973","p0c3y7vydr1","smaller","raccoon","see how size affects our perception","no","<div style=""font-size:60px;"">+</div>","null","","","","","","",""
"","372","image-keyboard-response","142","2.0.0","261347","p0c3y7vydr1","smaller","raccoon","see how size affects our perception","no","stimuli/16-Inongruent.jpg","z","","","","","left","z","true"
"","null","html-keyboard-response","143","2.0.0","262249","p0c3y7vydr1","smaller","raccoon","see how size affects our perception","no","<p>Correct!</p>","null","","","","","","",""
"","null","html-keyboard-response","144","2.0.0","263255","p0c3y7vydr1","smaller","raccoon","see how size affects our perception","no","<div style=""font-size:60px;"">+</div>","null","","","","","","",""
"","402","image-keyboard-response","145","2.0.0","263658","p0c3y7vydr1","smaller","raccoon","see how size affects our perception","no","stimuli/29-Inongruent.jpg","z","","","","","left","z","true"
"","null","html-keyboard-response","146","2.0.0","264571","p0c3y7vydr1","smaller","raccoon","see how size affects our perception","no","<p>Correct!</p>","null","","","","","","",""
"","null","html-keyboard-response","147","2.0.0","265581","p0c3y7vydr1","smaller","raccoon","see how size affects our perception","no","<div style=""font-size:60px;"">+</div>","null","","","","","","",""
"","652","image-keyboard-response","148","2.0.0","266235","p0c3y7vydr1","smaller","raccoon","see how size affects our perception","no","stimuli/35-Inongruent.jpg","z","","","","","left","z","true"
"","null","html-keyboard-response","149","2.0.0","267143","p0c3y7vydr1","smaller","raccoon","see how size affects our perception","no","<p>Correct!</p>","null","","","","","","",""
"","null","html-keyboard-response","150","2.0.0","268148","p0c3y7vydr1","smaller","raccoon","see how size affects our perception","no","<div style=""font-size:60px;"">+</div>","null","","","","","","",""
"","381","image-keyboard-response","151","2.0.0","268531","p0c3y7vydr1","smaller","raccoon","see how size affects our perception","no","stimuli/33-Congruent.jpg","m","","","","","right","m","true"
"","null","html-keyboard-response","152","2.0.0","269431","p0c3y7vydr1","smaller","raccoon","see how size affects our perception","no","<p>Correct!</p>","null","","","","","","",""
"","null","html-keyboard-response","153","2.0.0","270442","p0c3y7vydr1","smaller","raccoon","see how size affects our perception","no","<div style=""font-size:60px;"">+</div>","null","","","","","","",""
"","367","image-keyboard-response","154","2.0.0","270811","p0c3y7vydr1","smaller","raccoon","see how size affects our perception","no","stimuli/6-Inongruent.jpg","z","","","","","left","z","true"
"","null","html-keyboard-response","155","2.0.0","271722","p0c3y7vydr1","smaller","raccoon","see how size affects our perception","no","<p>Correct!</p>","null","","","","","","",""
"","null","html-keyboard-response","156","2.0.0","272724","p0c3y7vydr1","smaller","raccoon","see how size affects our perception","no","<div style=""font-size:60px;"">+</div>","null","","","","","","",""
"","1038","image-keyboard-response","157","2.0.0","273763","p0c3y7vydr1","smaller","raccoon","see how size affects our perception","no","stimuli/9-Inongruent.jpg","z","","","","","left","z","true"
"","null","html-keyboard-response","158","2.0.0","274669","p0c3y7vydr1","smaller","raccoon","see how size affects our perception","no","<p>Correct!</p>","null","","","","","","",""
"","null","html-keyboard-response","159","2.0.0","275683","p0c3y7vydr1","smaller","raccoon","see how size affects our perception","no","<div style=""font-size:60px;"">+</div>","null","","","","","","",""
"","471","image-keyboard-response","160","2.0.0","276155","p0c3y7vydr1","smaller","raccoon","see how size affects our perception","no","stimuli/22-Congruent.jpg","m","","","","","right","m","true"
"","null","html-keyboard-response","161","2.0.0","277066","p0c3y7vydr1","smaller","raccoon","see how size affects our perception","no","<p>Correct!</p>","null","","","","","","",""
"","null","html-keyboard-response","162","2.0.0","278075","p0c3y7vydr1","smaller","raccoon","see how size affects our perception","no","<div style=""font-size:60px;"">+</div>","null","","","","","","",""
"","439","image-keyboard-response","163","2.0.0","278515","p0c3y7vydr1","smaller","raccoon","see how size affects our perception","no","stimuli/2-Inongruent.jpg","z","","","","","left","z","true"
"","null","html-keyboard-response","164","2.0.0","279419","p0c3y7vydr1","smaller","raccoon","see how size affects our perception","no","<p>Correct!</p>","null","","","","","","",""
"","null","html-keyboard-response","165","2.0.0","280422","p0c3y7vydr1","smaller","raccoon","see how size affects our perception","no","<div style=""font-size:60px;"">+</div>","null","","","","","","",""
"","796","image-keyboard-response","166","2.0.0","281219","p0c3y7vydr1","smaller","raccoon","see how size affects our perception","no","stimuli/27-Inongruent.jpg","z","","","","","left","z","true"
"","null","html-keyboard-response","167","2.0.0","282132","p0c3y7vydr1","smaller","raccoon","see how size affects our perception","no","<p>Correct!</p>","null","","","","","","",""
"","null","html-keyboard-response","168","2.0.0","283145","p0c3y7vydr1","smaller","raccoon","see how size affects our perception","no","<div style=""font-size:60px;"">+</div>","null","","","","","","",""
"","713","image-keyboard-response","169","2.0.0","283859","p0c3y7vydr1","smaller","raccoon","see how size affects our perception","no","stimuli/27-Inongruent.jpg","z","","","","","left","z","true"
"","null","html-keyboard-response","170","2.0.0","284766","p0c3y7vydr1","smaller","raccoon","see how size affects our perception","no","<p>Correct!</p>","null","","","","","","",""
"","null","html-keyboard-response","171","2.0.0","285777","p0c3y7vydr1","smaller","raccoon","see how size affects our perception","no","<div style=""font-size:60px;"">+</div>","null","","","","","","",""
"","656","image-keyboard-response","172","2.0.0","286435","p0c3y7vydr1","smaller","raccoon","see how size affects our perception","no","stimuli/11-Congruent.jpg","m","","","","","right","m","true"
"","null","html-keyboard-response","173","2.0.0","287348","p0c3y7vydr1","smaller","raccoon","see how size affects our perception","no","<p>Correct!</p>","null","","","","","","",""
"","null","html-keyboard-response","174","2.0.0","288357","p0c3y7vydr1","smaller","raccoon","see how size affects our perception","no","<div style=""font-size:60px;"">+</div>","null","","","","","","",""
"","524","image-keyboard-response","175","2.0.0","288883","p0c3y7vydr1","smaller","raccoon","see how size affects our perception","no","stimuli/15-Inongruent.jpg","z","","","","","left","z","true"
"","null","html-keyboard-response","176","2.0.0","289783","p0c3y7vydr1","smaller","raccoon","see how size affects our perception","no","<p>Correct!</p>","null","","","","","","",""
"","null","html-keyboard-response","177","2.0.0","290800","p0c3y7vydr1","smaller","raccoon","see how size affects our perception","no","<div style=""font-size:60px;"">+</div>","null","","","","","","",""
"","1121","image-keyboard-response","178","2.0.0","291923","p0c3y7vydr1","smaller","raccoon","see how size affects our perception","no","stimuli/9-Inongruent.jpg","z","","","","","left","z","true"
"","null","html-keyboard-response","179","2.0.0","292833","p0c3y7vydr1","smaller","raccoon","see how size affects our perception","no","<p>Correct!</p>","null","","","","","","",""
"","null","html-keyboard-response","180","2.0.0","293845","p0c3y7vydr1","smaller","raccoon","see how size affects our perception","no","<div style=""font-size:60px;"">+</div>","null","","","","","","",""
"","500","image-keyboard-response","181","2.0.0","294347","p0c3y7vydr1","smaller","raccoon","see how size affects our perception","no","stimuli/12-Congruent.jpg","m","","","","","right","m","true"
"","872","html-keyboard-response","182","2.0.0","295219","p0c3y7vydr1","smaller","raccoon","see how size affects our perception","no","<p>Correct!</p>","m","","","","","","",""
"","null","html-keyboard-response","183","2.0.0","296224","p0c3y7vydr1","smaller","raccoon","see how size affects our perception","no","<div style=""font-size:60px;"">+</div>","null","","","","","","",""
"","97","image-keyboard-response","184","2.0.0","296323","p0c3y7vydr1","smaller","raccoon","see how size affects our perception","no","stimuli/15-Congruent.jpg","z","","","","","right","m","false"
"","143","html-keyboard-response","185","2.0.0","296466","p0c3y7vydr1","smaller","raccoon","see how size affects our perception","no","<p>Incorrect.</p><p>Remember to select the <b>smaller</b> image.</p><p>Continuing in 5 seconds...</p>","z","","","","","","",""
"","null","html-keyboard-response","186","2.0.0","297468","p0c3y7vydr1","smaller","raccoon","see how size affects our perception","no","<div style=""font-size:60px;"">+</div>","null","","","","","","",""
"","101","image-keyboard-response","187","2.0.0","297570","p0c3y7vydr1","smaller","raccoon","see how size affects our perception","no","stimuli/4-Congruent.jpg","z","","","","","right","m","false"
"","80","html-keyboard-response","188","2.0.0","297650","p0c3y7vydr1","smaller","raccoon","see how size affects our perception","no","<p>Incorrect.</p><p>Remember to select the <b>smaller</b> image.</p><p>Continuing in 5 seconds...</p>","m","","","","","","",""
"","null","html-keyboard-response","189","2.0.0","298657","p0c3y7vydr1","smaller","raccoon","see how size affects our perception","no","<div style=""font-size:60px;"">+</div>","null","","","","","","",""
"","24","image-keyboard-response","190","2.0.0","298683","p0c3y7vydr1","smaller","raccoon","see how size affects our perception","no","stimuli/11-Inongruent.jpg","z","","","","","left","z","true"
"","128","html-keyboard-response","191","2.0.0","298810","p0c3y7vydr1","smaller","raccoon","see how size affects our perception","no","<p>Correct!</p>","m","","","","","","",""
"","null","html-keyboard-response","192","2.0.0","299812","p0c3y7vydr1","smaller","raccoon","see how size affects our perception","no","<div style=""font-size:60px;"">+</div>","null","","","","","","",""
"","37","image-keyboard-response","193","2.0.0","299850","p0c3y7vydr1","smaller","raccoon","see how size affects our perception","no","stimuli/14-Inongruent.jpg","m","","","","","left","z","false"
"","80","html-keyboard-response","194","2.0.0","299930","p0c3y7vydr1","smaller","raccoon","see how size affects our perception","no","<p>Incorrect.</p><p>Remember to select the <b>smaller</b> image.</p><p>Continuing in 5 seconds...</p>","z","","","","","","",""
"","null","html-keyboard-response","195","2.0.0","300939","p0c3y7vydr1","smaller","raccoon","see how size affects our perception","no","<div style=""font-size:60px;"">+</div>","null","","","","","","",""
"","14","image-keyboard-response","196","2.0.0","300954","p0c3y7vydr1","smaller","raccoon","see how size affects our perception","no","stimuli/19-Congruent.jpg","m","","","","","right","m","true"
"","96","html-keyboard-response","197","2.0.0","301051","p0c3y7vydr1","smaller","raccoon","see how size affects our perception","no","<p>Correct!</p>","z","","","","","","",""
"","null","html-keyboard-response","198","2.0.0","302052","p0c3y7vydr1","smaller","raccoon","see how size affects our perception","no","<div style=""font-size:60px;"">+</div>","null","","","","","","",""
"","245","image-keyboard-response","199","2.0.0","302299","p0c3y7vydr1","smaller","raccoon","see how size affects our perception","no","stimuli/16-Inongruent.jpg","m","","","","","left","z","false"
"","352","html-keyboard-response","200","2.0.0","302651","p0c3y7vydr1","smaller","raccoon","see how size affects our perception","no","<p>Incorrect.</p><p>Remember to select the <b>smaller</b> image.</p><p>Continuing in 5 seconds...</p>","m","","","","","","",""
"","null","html-keyboard-response","201","2.0.0","303657","p0c3y7vydr1","smaller","raccoon","see how size affects our perception","no","<div style=""font-size:60px;"">+</div>","null","","","","","","",""
"","905","image-keyboard-response","202","2.0.0","304563","p0c3y7vydr1","smaller","raccoon","see how size affects our perception","no","stimuli/36-Inongruent.jpg","z","","","","","left","z","true"
"","159","html-keyboard-response","203","2.0.0","304723","p0c3y7vydr1","smaller","raccoon","see how size affects our perception","no","<p>Correct!</p>","z","","","","","","",""
"","null","html-keyboard-response","204","2.0.0","305731","p0c3y7vydr1","smaller","raccoon","see how size affects our perception","no","<div style=""font-size:60px;"">+</div>","null","","","","","","",""
"","687","image-keyboard-response","205","2.0.0","306419","p0c3y7vydr1","smaller","raccoon","see how size affects our perception","no","stimuli/22-Inongruent.jpg","z","","","","","left","z","true"
"","296","html-keyboard-response","206","2.0.0","306715","p0c3y7vydr1","smaller","raccoon","see how size affects our perception","no","<p>Correct!</p>","z","","","","","","",""
"","null","html-keyboard-response","207","2.0.0","307725","p0c3y7vydr1","smaller","raccoon","see how size affects our perception","no","<div style=""font-size:60px;"">+</div>","null","","","","","","",""
"","461","image-keyboard-response","208","2.0.0","308187","p0c3y7vydr1","smaller","raccoon","see how size affects our perception","no","stimuli/12-Inongruent.jpg","m","","","","","left","z","false"
"","176","html-keyboard-response","209","2.0.0","308363","p0c3y7vydr1","smaller","raccoon","see how size affects our perception","no","<p>Incorrect.</p><p>Remember to select the <b>smaller</b> image.</p><p>Continuing in 5 seconds...</p>","m","","","","","","",""
"","null","html-keyboard-response","210","2.0.0","309377","p0c3y7vydr1","smaller","raccoon","see how size affects our perception","no","<div style=""font-size:60px;"">+</div>","null","","","","","","",""
"","472","image-keyboard-response","211","2.0.0","309851","p0c3y7vydr1","smaller","raccoon","see how size affects our perception","no","stimuli/36-Congruent.jpg","m","","","","","right","m","true"
"","168","html-keyboard-response","212","2.0.0","310019","p0c3y7vydr1","smaller","raccoon","see how size affects our perception","no","<p>Correct!</p>","m","","","","","","",""
"","null","html-keyboard-response","213","2.0.0","311025","p0c3y7vydr1","smaller","raccoon","see how size affects our perception","no","<div style=""font-size:60px;"">+</div>","null","","","","","","",""
"","544","image-keyboard-response","214","2.0.0","311571","p0c3y7vydr1","smaller","raccoon","see how size affects our perception","no","stimuli/5-Inongruent.jpg","z","","","","","left","z","true"
"","null","html-keyboard-response","215","2.0.0","312482","p0c3y7vydr1","smaller","raccoon","see how size affects our perception","no","<p>Correct!</p>","null","","","","","","",""
"","null","html-keyboard-response","216","2.0.0","313494","p0c3y7vydr1","smaller","raccoon","see how size affects our perception","no","<div style=""font-size:60px;"">+</div>","null","","","","","","",""
"","452","image-keyboard-response","217","2.0.0","313947","p0c3y7vydr1","smaller","raccoon","see how size affects our perception","no","stimuli/5-Inongruent.jpg","z","","","","","left","z","true"
"","151","html-keyboard-response","218","2.0.0","314099","p0c3y7vydr1","smaller","raccoon","see how size affects our perception","no","<p>Correct!</p>","z","","","","","","",""
"","null","html-keyboard-response","219","2.0.0","315106","p0c3y7vydr1","smaller","raccoon","see how size affects our perception","no","<div style=""font-size:60px;"">+</div>","null","","","","","","",""
"","367","image-keyboard-response","220","2.0.0","315475","p0c3y7vydr1","smaller","raccoon","see how size affects our perception","no","stimuli/13-Congruent.jpg","m","","","","","right","m","true"
"","160","html-keyboard-response","221","2.0.0","315635","p0c3y7vydr1","smaller","raccoon","see how size affects our perception","no","<p>Correct!</p>","m","","","","","","",""
"","null","html-keyboard-response","222","2.0.0","316644","p0c3y7vydr1","smaller","raccoon","see how size affects our perception","no","<div style=""font-size:60px;"">+</div>","null","","","","","","",""
"","309","image-keyboard-response","223","2.0.0","316955","p0c3y7vydr1","smaller","raccoon","see how size affects our perception","no","stimuli/35-Congruent.jpg","m","","","","","right","m","true"
"","159","html-keyboard-response","224","2.0.0","317115","p0c3y7vydr1","smaller","raccoon","see how size affects our perception","no","<p>Correct!</p>","m","","","","","","",""
"","null","html-keyboard-response","225","2.0.0","318120","p0c3y7vydr1","smaller","raccoon","see how size affects our perception","no","<div style=""font-size:60px;"">+</div>","null","","","","","","",""
"","322","image-keyboard-response","226","2.0.0","318443","p0c3y7vydr1","smaller","raccoon","see how size affects our perception","no","stimuli/29-Congruent.jpg","m","","","","","right","m","true"
"","168","html-keyboard-response","227","2.0.0","318611","p0c3y7vydr1","smaller","raccoon","see how size affects our perception","no","<p>Correct!</p>","m","","","","","","",""
"","null","html-keyboard-response","228","2.0.0","319622","p0c3y7vydr1","smaller","raccoon","see how size affects our perception","no","<div style=""font-size:60px;"">+</div>","null","","","","","","",""
"","355","image-keyboard-response","229","2.0.0","319979","p0c3y7vydr1","smaller","raccoon","see how size affects our perception","no","stimuli/28-Inongruent.jpg","z","","","","","left","z","true"
"","159","html-keyboard-response","230","2.0.0","320139","p0c3y7vydr1","smaller","raccoon","see how size affects our perception","no","<p>Correct!</p>","z","","","","","","",""
"","null","html-keyboard-response","231","2.0.0","321145","p0c3y7vydr1","smaller","raccoon","see how size affects our perception","no","<div style=""font-size:60px;"">+</div>","null","","","","","","",""
"","425","image-keyboard-response","232","2.0.0","321571","p0c3y7vydr1","smaller","raccoon","see how size affects our perception","no","stimuli/25-Inongruent.jpg","z","","","","","left","z","true"
"","168","html-keyboard-response","233","2.0.0","321739","p0c3y7vydr1","smaller","raccoon","see how size affects our perception","no","<p>Correct!</p>","z","","","","","","",""
"","null","html-keyboard-response","234","2.0.0","322742","p0c3y7vydr1","smaller","raccoon","see how size affects our perception","no","<div style=""font-size:60px;"">+</div>","null","","","","","","",""
"","348","image-keyboard-response","235","2.0.0","323091","p0c3y7vydr1","smaller","raccoon","see how size affects our perception","no","stimuli/14-Congruent.jpg","m","","","","","right","m","true"
"","167","html-keyboard-response","236","2.0.0","323259","p0c3y7vydr1","smaller","raccoon","see how size affects our perception","no","<p>Correct!</p>","m","","","","","","",""
"","null","html-keyboard-response","237","2.0.0","324262","p0c3y7vydr1","smaller","raccoon","see how size affects our perception","no","<div style=""font-size:60px;"">+</div>","null","","","","","","",""
"","243","image-keyboard-response","238","2.0.0","324507","p0c3y7vydr1","smaller","raccoon","see how size affects our perception","no","stimuli/16-Congruent.jpg","z","","","","","right","m","false"
"","160","html-keyboard-response","239","2.0.0","324667","p0c3y7vydr1","smaller","raccoon","see how size affects our perception","no","<p>Incorrect.</p><p>Remember to select the <b>smaller</b> image.</p><p>Continuing in 5 seconds...</p>","z","","","","","","",""
"","null","html-keyboard-response","240","2.0.0","325672","p0c3y7vydr1","smaller","raccoon","see how size affects our perception","no","<div style=""font-size:60px;"">+</div>","null","","","","","","",""
"","410","image-keyboard-response","241","2.0.0","326083","p0c3y7vydr1","smaller","raccoon","see how size affects our perception","no","stimuli/12-Congruent.jpg","m","","","","","right","m","true"
"","168","html-keyboard-response","242","2.0.0","326251","p0c3y7vydr1","smaller","raccoon","see how size affects our perception","no","<p>Correct!</p>","m","","","","","","",""
"","null","html-keyboard-response","243","2.0.0","327253","p0c3y7vydr1","smaller","raccoon","see how size affects our perception","no","<div style=""font-size:60px;"">+</div>","null","","","","","","",""
"","316","image-keyboard-response","244","2.0.0","327571","p0c3y7vydr1","smaller","raccoon","see how size affects our perception","no","stimuli/13-Inongruent.jpg","z","","","","","left","z","true"
"","159","html-keyboard-response","245","2.0.0","327731","p0c3y7vydr1","smaller","raccoon","see how size affects our perception","no","<p>Correct!</p>","z","","","","","","",""
"","null","html-keyboard-response","246","2.0.0","328742","p0c3y7vydr1","smaller","raccoon","see how size affects our perception","no","<div style=""font-size:60px;"">+</div>","null","","","","","","",""
"","251","image-keyboard-response","247","2.0.0","328995","p0c3y7vydr1","smaller","raccoon","see how size affects our perception","no","stimuli/23-Congruent.jpg","m","","","","","right","m","true"
"","168","html-keyboard-response","248","2.0.0","329163","p0c3y7vydr1","smaller","raccoon","see how size affects our perception","no","<p>Correct!</p>","m","","","","","","",""
"","null","html-keyboard-response","249","2.0.0","330164","p0c3y7vydr1","smaller","raccoon","see how size affects our perception","no","<div style=""font-size:60px;"">+</div>","null","","","","","","",""
"","374","image-keyboard-response","250","2.0.0","330539","p0c3y7vydr1","smaller","raccoon","see how size affects our perception","no","stimuli/27-Congruent.jpg","m","","","","","right","m","true"
"","152","html-keyboard-response","251","2.0.0","330691","p0c3y7vydr1","smaller","raccoon","see how size affects our perception","no","<p>Correct!</p>","m","","","","","","",""
"","null","html-keyboard-response","252","2.0.0","331702","p0c3y7vydr1","smaller","raccoon","see how size affects our perception","no","<div style=""font-size:60px;"">+</div>","null","","","","","","",""
"","260","image-keyboard-response","253","2.0.0","331963","p0c3y7vydr1","smaller","raccoon","see how size affects our perception","no","stimuli/21-Inongruent.jpg","z","","","","","left","z","true"
"","160","html-keyboard-response","254","2.0.0","332123","p0c3y7vydr1","smaller","raccoon","see how size affects our perception","no","<p>Correct!</p>","z","","","","","","",""
"","null","html-keyboard-response","255","2.0.0","333126","p0c3y7vydr1","smaller","raccoon","see how size affects our perception","no","<div style=""font-size:60px;"">+</div>","null","","","","","","",""
"","355","image-keyboard-response","256","2.0.0","333483","p0c3y7vydr1","smaller","raccoon","see how size affects our perception","no","stimuli/32-Congruent.jpg","m","","","","","right","m","true"
"","152","html-keyboard-response","257","2.0.0","333635","p0c3y7vydr1","smaller","raccoon","see how size affects our perception","no","<p>Correct!</p>","m","","","","","","",""
"","null","html-keyboard-response","258","2.0.0","334637","p0c3y7vydr1","smaller","raccoon","see how size affects our perception","no","<div style=""font-size:60px;"">+</div>","null","","","","","","",""
"","317","image-keyboard-response","259","2.0.0","334955","p0c3y7vydr1","smaller","raccoon","see how size affects our perception","no","stimuli/17-Inongruent.jpg","z","","","","","left","z","true"
"","119","html-keyboard-response","260","2.0.0","335074","p0c3y7vydr1","smaller","raccoon","see how size affects our perception","no","<p>Correct!</p>","z","","","","","","",""
"","null","html-keyboard-response","261","2.0.0","336089","p0c3y7vydr1","smaller","raccoon","see how size affects our perception","no","<div style=""font-size:60px;"">+</div>","null","","","","","","",""
"","289","image-keyboard-response","262","2.0.0","336379","p0c3y7vydr1","smaller","raccoon","see how size affects our perception","no","stimuli/13-Congruent.jpg","m","","","","","right","m","true"
"","152","html-keyboard-response","263","2.0.0","336531","p0c3y7vydr1","smaller","raccoon","see how size affects our perception","no","<p>Correct!</p>","m","","","","","","",""
"","null","html-keyboard-response","264","2.0.0","337547","p0c3y7vydr1","smaller","raccoon","see how size affects our perception","no","<div style=""font-size:60px;"">+</div>","null","","","","","","",""
"","359","image-keyboard-response","265","2.0.0","337907","p0c3y7vydr1","smaller","raccoon","see how size affects our perception","no","stimuli/15-Congruent.jpg","m","","","","","right","m","true"
"","143","html-keyboard-response","266","2.0.0","338051","p0c3y7vydr1","smaller","raccoon","see how size affects our perception","no","<p>Correct!</p>","m","","","","","","",""
"","null","html-keyboard-response","267","2.0.0","339063","p0c3y7vydr1","smaller","raccoon","see how size affects our perception","no","<div style=""font-size:60px;"">+</div>","null","","","","","","",""
"","258","image-keyboard-response","268","2.0.0","339323","p0c3y7vydr1","smaller","raccoon","see how size affects our perception","no","stimuli/31-Inongruent.jpg","z","","","","","left","z","true"
"","151","html-keyboard-response","269","2.0.0","339474","p0c3y7vydr1","smaller","raccoon","see how size affects our perception","no","<p>Correct!</p>","z","","","","","","",""
"","null","html-keyboard-response","270","2.0.0","340476","p0c3y7vydr1","smaller","raccoon","see how size affects our perception","no","<div style=""font-size:60px;"">+</div>","null","","","","","","",""
"","294","image-keyboard-response","271","2.0.0","340771","p0c3y7vydr1","smaller","raccoon","see how size affects our perception","no","stimuli/10-Inongruent.jpg","m","","","","","left","z","false"
"","175","html-keyboard-response","272","2.0.0","340947","p0c3y7vydr1","smaller","raccoon","see how size affects our perception","no","<p>Incorrect.</p><p>Remember to select the <b>smaller</b> image.</p><p>Continuing in 5 seconds...</p>","m","","","","","","",""
"","null","html-keyboard-response","273","2.0.0","341951","p0c3y7vydr1","smaller","raccoon","see how size affects our perception","no","<div style=""font-size:60px;"">+</div>","null","","","","","","",""
"","370","image-keyboard-response","274","2.0.0","342323","p0c3y7vydr1","smaller","raccoon","see how size affects our perception","no","stimuli/31-Congruent.jpg","m","","","","","right","m","true"
"","152","html-keyboard-response","275","2.0.0","342475","p0c3y7vydr1","smaller","raccoon","see how size affects our perception","no","<p>Correct!</p>","m","","","","","","",""
"","null","html-keyboard-response","276","2.0.0","343490","p0c3y7vydr1","smaller","raccoon","see how size affects our perception","no","<div style=""font-size:60px;"">+</div>","null","","","","","","",""
"","304","image-keyboard-response","277","2.0.0","343795","p0c3y7vydr1","smaller","raccoon","see how size affects our perception","no","stimuli/2-Inongruent.jpg","z","","","","","left","z","true"
"","152","html-keyboard-response","278","2.0.0","343947","p0c3y7vydr1","smaller","raccoon","see how size affects our perception","no","<p>Correct!</p>","z","","","","","","",""
"","null","html-keyboard-response","279","2.0.0","344950","p0c3y7vydr1","smaller","raccoon","see how size affects our perception","no","<div style=""font-size:60px;"">+</div>","null","","","","","","",""
"","324","image-keyboard-response","280","2.0.0","345275","p0c3y7vydr1","smaller","raccoon","see how size affects our perception","no","stimuli/2-Congruent.jpg","m","","","","","right","m","true"
"","159","html-keyboard-response","281","2.0.0","345435","p0c3y7vydr1","smaller","raccoon","see how size affects our perception","no","<p>Correct!</p>","m","","","","","","",""
"","null","html-keyboard-response","282","2.0.0","346439","p0c3y7vydr1","smaller","raccoon","see how size affects our perception","no","<div style=""font-size:60px;"">+</div>","null","","","","","","",""
"","290","image-keyboard-response","283","2.0.0","346731","p0c3y7vydr1","smaller","raccoon","see how size affects our perception","no","stimuli/18-Inongruent.jpg","z","","","","","left","z","true"
"","127","html-keyboard-response","284","2.0.0","346859","p0c3y7vydr1","smaller","raccoon","see how size affects our perception","no","<p>Correct!</p>","z","","","","","","",""
"","null","html-keyboard-response","285","2.0.0","347867","p0c3y7vydr1","smaller","raccoon","see how size affects our perception","no","<div style=""font-size:60px;"">+</div>","null","","","","","","",""
"","247","image-keyboard-response","286","2.0.0","348115","p0c3y7vydr1","smaller","raccoon","see how size affects our perception","no","stimuli/2-Congruent.jpg","m","","","","","right","m","true"
"","159","html-keyboard-response","287","2.0.0","348275","p0c3y7vydr1","smaller","raccoon","see how size affects our perception","no","<p>Correct!</p>","m","","","","","","",""
"","null","html-keyboard-response","288","2.0.0","349285","p0c3y7vydr1","smaller","raccoon","see how size affects our perception","no","<div style=""font-size:60px;"">+</div>","null","","","","","","",""
"","284","image-keyboard-response","289","2.0.0","349571","p0c3y7vydr1","smaller","raccoon","see how size affects our perception","no","stimuli/17-Congruent.jpg","m","","","","","right","m","true"
"","184","html-keyboard-response","290","2.0.0","349755","p0c3y7vydr1","smaller","raccoon","see how size affects our perception","no","<p>Correct!</p>","m","","","","","","",""
"","null","html-keyboard-response","291","2.0.0","350760","p0c3y7vydr1","smaller","raccoon","see how size affects our perception","no","<div style=""font-size:60px;"">+</div>","null","","","","","","",""
"","186","image-keyboard-response","292","2.0.0","350947","p0c3y7vydr1","smaller","raccoon","see how size affects our perception","no","stimuli/23-Inongruent.jpg","z","","","","","left","z","true"
"","144","html-keyboard-response","293","2.0.0","351091","p0c3y7vydr1","smaller","raccoon","see how size affects our perception","no","<p>Correct!</p>","z","","","","","","",""
"","null","html-keyboard-response","294","2.0.0","352092","p0c3y7vydr1","smaller","raccoon","see how size affects our perception","no","<div style=""font-size:60px;"">+</div>","null","","","","","","",""
"","93","image-keyboard-response","295","2.0.0","352187","p0c3y7vydr1","smaller","raccoon","see how size affects our perception","no","stimuli/18-Inongruent.jpg","m","","","","","left","z","false"
"","176","html-keyboard-response","296","2.0.0","352363","p0c3y7vydr1","smaller","raccoon","see how size affects our perception","no","<p>Incorrect.</p><p>Remember to select the <b>smaller</b> image.</p><p>Continuing in 5 seconds...</p>","m","","","","","","",""
"","null","html-keyboard-response","297","2.0.0","353371","p0c3y7vydr1","smaller","raccoon","see how size affects our perception","no","<div style=""font-size:60px;"">+</div>","null","","","","","","",""
"","55","image-keyboard-response","298","2.0.0","353427","p0c3y7vydr1","smaller","raccoon","see how size affects our perception","no","stimuli/6-Inongruent.jpg","z","","","","","left","z","true"
"","159","html-keyboard-response","299","2.0.0","353587","p0c3y7vydr1","smaller","raccoon","see how size affects our perception","no","<p>Correct!</p>","z","","","","","","",""
"","null","html-keyboard-response","300","2.0.0","354600","p0c3y7vydr1","smaller","raccoon","see how size affects our perception","no","<div style=""font-size:60px;"">+</div>","null","","","","","","",""
"","154","image-keyboard-response","301","2.0.0","354755","p0c3y7vydr1","smaller","raccoon","see how size affects our perception","no","stimuli/26-Inongruent.jpg","z","","","","","left","z","true"
"","176","html-keyboard-response","302","2.0.0","354931","p0c3y7vydr1","smaller","raccoon","see how size affects our perception","no","<p>Correct!</p>","z","","","","","","",""
"","null","html-keyboard-response","303","2.0.0","355945","p0c3y7vydr1","smaller","raccoon","see how size affects our perception","no","<div style=""font-size:60px;"">+</div>","null","","","","","","",""
"","361","image-keyboard-response","304","2.0.0","356307","p0c3y7vydr1","smaller","raccoon","see how size affects our perception","no","stimuli/6-Congruent.jpg","m","","","","","right","m","true"
"","168","html-keyboard-response","305","2.0.0","356475","p0c3y7vydr1","smaller","raccoon","see how size affects our perception","no","<p>Correct!</p>","m","","","","","","",""
"","null","html-keyboard-response","306","2.0.0","357482","p0c3y7vydr1","smaller","raccoon","see how size affects our perception","no","<div style=""font-size:60px;"">+</div>","null","","","","","","",""
"","200","image-keyboard-response","307","2.0.0","357683","p0c3y7vydr1","smaller","raccoon","see how size affects our perception","no","stimuli/1-Congruent.jpg","z","","","","","right","m","false"
"","159","html-keyboard-response","308","2.0.0","357843","p0c3y7vydr1","smaller","raccoon","see how size affects our perception","no","<p>Incorrect.</p><p>Remember to select the <b>smaller</b> image.</p><p>Continuing in 5 seconds...</p>","z","","","","","","",""
"","null","html-keyboard-response","309","2.0.0","358844","p0c3y7vydr1","smaller","raccoon","see how size affects our perception","no","<div style=""font-size:60px;"">+</div>","null","","","","","","",""
"","358","image-keyboard-response","310","2.0.0","359203","p0c3y7vydr1","smaller","raccoon","see how size affects our perception","no","stimuli/7-Inongruent.jpg","z","","","","","left","z","true"
"","143","html-keyboard-response","311","2.0.0","359347","p0c3y7vydr1","smaller","raccoon","see how size affects our perception","no","<p>Correct!</p>","z","","","","","","",""
"","null","html-keyboard-response","312","2.0.0","360351","p0c3y7vydr1","smaller","raccoon","see how size affects our perception","no","<div style=""font-size:60px;"">+</div>","null","","","","","","",""
"","386","image-keyboard-response","313","2.0.0","360739","p0c3y7vydr1","smaller","raccoon","see how size affects our perception","no","stimuli/33-Congruent.jpg","m","","","","","right","m","true"
"","168","html-keyboard-response","314","2.0.0","360907","p0c3y7vydr1","smaller","raccoon","see how size affects our perception","no","<p>Correct!</p>","m","","","","","","",""
"","null","html-keyboard-response","315","2.0.0","361915","p0c3y7vydr1","smaller","raccoon","see how size affects our perception","no","<div style=""font-size:60px;"">+</div>","null","","","","","","",""
"","367","image-keyboard-response","316","2.0.0","362283","p0c3y7vydr1","smaller","raccoon","see how size affects our perception","no","stimuli/25-Congruent.jpg","m","","","","","right","m","true"
"","167","html-keyboard-response","317","2.0.0","362451","p0c3y7vydr1","smaller","raccoon","see how size affects our perception","no","<p>Correct!</p>","m","","","","","","",""
"","null","html-keyboard-response","318","2.0.0","363460","p0c3y7vydr1","smaller","raccoon","see how size affects our perception","no","<div style=""font-size:60px;"">+</div>","null","","","","","","",""
"","374","image-keyboard-response","319","2.0.0","363835","p0c3y7vydr1","smaller","raccoon","see how size affects our perception","no","stimuli/33-Inongruent.jpg","z","","","","","left","z","true"
"","152","html-keyboard-response","320","2.0.0","363987","p0c3y7vydr1","smaller","raccoon","see how size affects our perception","no","<p>Correct!</p>","z","","","","","","",""
"","null","html-keyboard-response","321","2.0.0","364990","p0c3y7vydr1","smaller","raccoon","see how size affects our perception","no","<div style=""font-size:60px;"">+</div>","null","","","","","","",""
"","499","image-keyboard-response","322","2.0.0","365491","p0c3y7vydr1","smaller","raccoon","see how size affects our perception","no","stimuli/12-Inongruent.jpg","m","","","","","left","z","false"
"","192","html-keyboard-response","323","2.0.0","365683","p0c3y7vydr1","smaller","raccoon","see how size affects our perception","no","<p>Incorrect.</p><p>Remember to select the <b>smaller</b> image.</p><p>Continuing in 5 seconds...</p>","m","","","","","","",""
"","null","html-keyboard-response","324","2.0.0","366685","p0c3y7vydr1","smaller","raccoon","see how size affects our perception","no","<div style=""font-size:60px;"">+</div>","null","","","","","","",""
"","445","image-keyboard-response","325","2.0.0","367131","p0c3y7vydr1","smaller","raccoon","see how size affects our perception","no","stimuli/14-Congruent.jpg","m","","","","","right","m","true"
"","184","html-keyboard-response","326","2.0.0","367315","p0c3y7vydr1","smaller","raccoon","see how size affects our perception","no","<p>Correct!</p>","m","","","","","","",""
"","null","html-keyboard-response","327","2.0.0","368318","p0c3y7vydr1","smaller","raccoon","see how size affects our perception","no","<div style=""font-size:60px;"">+</div>","null","","","","","","",""
"","380","image-keyboard-response","328","2.0.0","368699","p0c3y7vydr1","smaller","raccoon","see how size affects our perception","no","stimuli/23-Congruent.jpg","m","","","","","right","m","true"
"","175","html-keyboard-response","329","2.0.0","368875","p0c3y7vydr1","smaller","raccoon","see how size affects our perception","no","<p>Correct!</p>","m","","","","","","",""
"","null","html-keyboard-response","330","2.0.0","369883","p0c3y7vydr1","smaller","raccoon","see how size affects our perception","no","<div style=""font-size:60px;"">+</div>","null","","","","","","",""
"","319","image-keyboard-response","331","2.0.0","370203","p0c3y7vydr1","smaller","raccoon","see how size affects our perception","no","stimuli/8-Inongruent.jpg","z","","","","","left","z","true"
"","152","html-keyboard-response","332","2.0.0","370355","p0c3y7vydr1","smaller","raccoon","see how size affects our perception","no","<p>Correct!</p>","z","","","","","","",""
"","null","html-keyboard-response","333","2.0.0","371368","p0c3y7vydr1","smaller","raccoon","see how size affects our perception","no","<div style=""font-size:60px;"">+</div>","null","","","","","","",""
"","482","image-keyboard-response","334","2.0.0","371851","p0c3y7vydr1","smaller","raccoon","see how size affects our perception","no","stimuli/28-Inongruent.jpg","z","","","","","left","z","true"
"","160","html-keyboard-response","335","2.0.0","372011","p0c3y7vydr1","smaller","raccoon","see how size affects our perception","no","<p>Correct!</p>","z","","","","","","",""
"","null","html-keyboard-response","336","2.0.0","373015","p0c3y7vydr1","smaller","raccoon","see how size affects our perception","no","<div style=""font-size:60px;"">+</div>","null","","","","","","",""
"","379","image-keyboard-response","337","2.0.0","373395","p0c3y7vydr1","smaller","raccoon","see how size affects our perception","no","stimuli/26-Congruent.jpg","m","","","","","right","m","true"
"","159","html-keyboard-response","338","2.0.0","373555","p0c3y7vydr1","smaller","raccoon","see how size affects our perception","no","<p>Correct!</p>","m","","","","","","",""
"","null","html-keyboard-response","339","2.0.0","374556","p0c3y7vydr1","smaller","raccoon","see how size affects our perception","no","<div style=""font-size:60px;"">+</div>","null","","","","","","",""
"","333","image-keyboard-response","340","2.0.0","374891","p0c3y7vydr1","smaller","raccoon","see how size affects our perception","no","stimuli/31-Inongruent.jpg","z","","","","","left","z","true"
"","160","html-keyboard-response","341","2.0.0","375051","p0c3y7vydr1","smaller","raccoon","see how size affects our perception","no","<p>Correct!</p>","z","","","","","","",""
"","null","html-keyboard-response","342","2.0.0","376058","p0c3y7vydr1","smaller","raccoon","see how size affects our perception","no","<div style=""font-size:60px;"">+</div>","null","","","","","","",""
"","344","image-keyboard-response","343","2.0.0","376403","p0c3y7vydr1","smaller","raccoon","see how size affects our perception","no","stimuli/10-Congruent.jpg","m","","","","","right","m","true"
"","176","html-keyboard-response","344","2.0.0","376579","p0c3y7vydr1","smaller","raccoon","see how size affects our perception","no","<p>Correct!</p>","m","","","","","","",""
"","null","html-keyboard-response","345","2.0.0","377592","p0c3y7vydr1","smaller","raccoon","see how size affects our perception","no","<div style=""font-size:60px;"">+</div>","null","","","","","","",""
"","442","image-keyboard-response","346","2.0.0","378035","p0c3y7vydr1","smaller","raccoon","see how size affects our perception","no","stimuli/3-Congruent.jpg","m","","","","","right","m","true"
"","167","html-keyboard-response","347","2.0.0","378203","p0c3y7vydr1","smaller","raccoon","see how size affects our perception","no","<p>Correct!</p>","m","","","","","","",""
"","null","html-keyboard-response","348","2.0.0","379210","p0c3y7vydr1","smaller","raccoon","see how size affects our perception","no","<div style=""font-size:60px;"">+</div>","null","","","","","","",""
"","496","image-keyboard-response","349","2.0.0","379707","p0c3y7vydr1","smaller","raccoon","see how size affects our perception","no","stimuli/9-Congruent.jpg","m","","","","","right","m","true"
"","176","html-keyboard-response","350","2.0.0","379883","p0c3y7vydr1","smaller","raccoon","see how size affects our perception","no","<p>Correct!</p>","m","","","","","","",""
"","null","html-keyboard-response","351","2.0.0","380894","p0c3y7vydr1","smaller","raccoon","see how size affects our perception","no","<div style=""font-size:60px;"">+</div>","null","","","","","","",""
"","468","image-keyboard-response","352","2.0.0","381363","p0c3y7vydr1","smaller","raccoon","see how size affects our perception","no","stimuli/3-Congruent.jpg","m","","","","","right","m","true"
"","192","html-keyboard-response","353","2.0.0","381555","p0c3y7vydr1","smaller","raccoon","see how size affects our perception","no","<p>Correct!</p>","m","","","","","","",""
"","null","html-keyboard-response","354","2.0.0","382565","p0c3y7vydr1","smaller","raccoon","see how size affects our perception","no","<div style=""font-size:60px;"">+</div>","null","","","","","","",""
"","445","image-keyboard-response","355","2.0.0","383011","p0c3y7vydr1","smaller","raccoon","see how size affects our perception","no","stimuli/1-Inongruent.jpg","z","","","","","left","z","true"
"","151","html-keyboard-response","356","2.0.0","383163","p0c3y7vydr1","smaller","raccoon","see how size affects our perception","no","<p>Correct!</p>","z","","","","","","",""
"","null","html-keyboard-response","357","2.0.0","384166","p0c3y7vydr1","smaller","raccoon","see how size affects our perception","no","<div style=""font-size:60px;"">+</div>","null","","","","","","",""
"","652","image-keyboard-response","358","2.0.0","384819","p0c3y7vydr1","smaller","raccoon","see how size affects our perception","no","stimuli/8-Inongruent.jpg","z","","","","","left","z","true"
"","160","html-keyboard-response","359","2.0.0","384979","p0c3y7vydr1","smaller","raccoon","see how size affects our perception","no","<p>Correct!</p>","z","","","","","","",""
"","null","html-keyboard-response","360","2.0.0","385985","p0c3y7vydr1","smaller","raccoon","see how size affects our perception","no","<div style=""font-size:60px;"">+</div>","null","","","","","","",""
"","553","image-keyboard-response","361","2.0.0","386539","p0c3y7vydr1","smaller","raccoon","see how size affects our perception","no","stimuli/20-Inongruent.jpg","z","","","","","left","z","true"
"","160","html-keyboard-response","362","2.0.0","386699","p0c3y7vydr1","smaller","raccoon","see how size affects our perception","no","<p>Correct!</p>","z","","","","","","",""
"","null","html-keyboard-response","363","2.0.0","387709","p0c3y7vydr1","smaller","raccoon","see how size affects our perception","no","<div style=""font-size:60px;"">+</div>","null","","","","","","",""
"","821","image-keyboard-response","364","2.0.0","388531","p0c3y7vydr1","smaller","raccoon","see how size affects our perception","no","stimuli/19-Congruent.jpg","m","","","","","right","m","true"
"","175","html-keyboard-response","365","2.0.0","388707","p0c3y7vydr1","smaller","raccoon","see how size affects our perception","no","<p>Correct!</p>","m","","","","","","",""
"","null","html-keyboard-response","366","2.0.0","389722","p0c3y7vydr1","smaller","raccoon","see how size affects our perception","no","<div style=""font-size:60px;"">+</div>","null","","","","","","",""
"","408","image-keyboard-response","367","2.0.0","390131","p0c3y7vydr1","smaller","raccoon","see how size affects our perception","no","stimuli/35-Inongruent.jpg","z","","","","","left","z","true"
"","176","html-keyboard-response","368","2.0.0","390307","p0c3y7vydr1","smaller","raccoon","see how size affects our perception","no","<p>Correct!</p>","z","","","","","","",""
"","null","html-keyboard-response","369","2.0.0","391316","p0c3y7vydr1","smaller","raccoon","see how size affects our perception","no","<div style=""font-size:60px;"">+</div>","null","","","","","","",""
"","414","image-keyboard-response","370","2.0.0","391731","p0c3y7vydr1","smaller","raccoon","see how size affects our perception","no","stimuli/26-Congruent.jpg","m","","","","","right","m","true"
"","192","html-keyboard-response","371","2.0.0","391923","p0c3y7vydr1","smaller","raccoon","see how size affects our perception","no","<p>Correct!</p>","m","","","","","","",""
"","null","html-keyboard-response","372","2.0.0","392930","p0c3y7vydr1","smaller","raccoon","see how size affects our perception","no","<div style=""font-size:60px;"">+</div>","null","","","","","","",""
"","512","image-keyboard-response","373","2.0.0","393443","p0c3y7vydr1","smaller","raccoon","see how size affects our perception","no","stimuli/28-Congruent.jpg","m","","","","","right","m","true"
"","192","html-keyboard-response","374","2.0.0","393635","p0c3y7vydr1","smaller","raccoon","see how size affects our perception","no","<p>Correct!</p>","m","","","","","","",""
"","null","html-keyboard-response","375","2.0.0","394637","p0c3y7vydr1","smaller","raccoon","see how size affects our perception","no","<div style=""font-size:60px;"">+</div>","null","","","","","","",""
"","421","image-keyboard-response","376","2.0.0","395059","p0c3y7vydr1","smaller","raccoon","see how size affects our perception","no","stimuli/7-Congruent.jpg","m","","","","","right","m","true"
"","192","html-keyboard-response","377","2.0.0","395251","p0c3y7vydr1","smaller","raccoon","see how size affects our perception","no","<p>Correct!</p>","m","","","","","","",""
"","null","html-keyboard-response","378","2.0.0","396256","p0c3y7vydr1","smaller","raccoon","see how size affects our perception","no","<div style=""font-size:60px;"">+</div>","null","","","","","","",""
"","442","image-keyboard-response","379","2.0.0","396699","p0c3y7vydr1","smaller","raccoon","see how size affects our perception","no","stimuli/34-Inongruent.jpg","z","","","","","left","z","true"
"","168","html-keyboard-response","380","2.0.0","396867","p0c3y7vydr1","smaller","raccoon","see how size affects our perception","no","<p>Correct!</p>","z","","","","","","",""
"","null","html-keyboard-response","381","2.0.0","397871","p0c3y7vydr1","smaller","raccoon","see how size affects our perception","no","<div style=""font-size:60px;"">+</div>","null","","","","","","",""
"","539","image-keyboard-response","382","2.0.0","398411","p0c3y7vydr1","smaller","raccoon","see how size affects our perception","no","stimuli/33-Inongruent.jpg","z","","","","","left","z","true"
"","176","html-keyboard-response","383","2.0.0","398587","p0c3y7vydr1","smaller","raccoon","see how size affects our perception","no","<p>Correct!</p>","z","","","","","","",""
"","null","html-keyboard-response","384","2.0.0","399599","p0c3y7vydr1","smaller","raccoon","see how size affects our perception","no","<div style=""font-size:60px;"">+</div>","null","","","","","","",""
"","259","image-keyboard-response","385","2.0.0","399859","p0c3y7vydr1","smaller","raccoon","see how size affects our perception","no","stimuli/25-Congruent.jpg","m","","","","","right","m","true"
"","200","html-keyboard-response","386","2.0.0","400059","p0c3y7vydr1","smaller","raccoon","see how size affects our perception","no","<p>Correct!</p>","m","","","","","","",""
"","null","html-keyboard-response","387","2.0.0","401072","p0c3y7vydr1","smaller","raccoon","see how size affects our perception","no","<div style=""font-size:60px;"">+</div>","null","","","","","","",""
"","737","image-keyboard-response","388","2.0.0","401811","p0c3y7vydr1","smaller","raccoon","see how size affects our perception","no","stimuli/36-Inongruent.jpg","z","","","","","left","z","true"
"","168","html-keyboard-response","389","2.0.0","401979","p0c3y7vydr1","smaller","raccoon","see how size affects our perception","no","<p>Correct!</p>","z","","","","","","",""
"","null","html-keyboard-response","390","2.0.0","402988","p0c3y7vydr1","smaller","raccoon","see how size affects our perception","no","<div style=""font-size:60px;"">+</div>","null","","","","","","",""
"","742","image-keyboard-response","391","2.0.0","403731","p0c3y7vydr1","smaller","raccoon","see how size affects our perception","no","stimuli/27-Congruent.jpg","m","","","","","right","m","true"
"","183","html-keyboard-response","392","2.0.0","403915","p0c3y7vydr1","smaller","raccoon","see how size affects our perception","no","<p>Correct!</p>","m","","","","","","",""
"","null","html-keyboard-response","393","2.0.0","404928","p0c3y7vydr1","smaller","raccoon","see how size affects our perception","no","<div style=""font-size:60px;"">+</div>","null","","","","","","",""
"","450","image-keyboard-response","394","2.0.0","405379","p0c3y7vydr1","smaller","raccoon","see how size affects our perception","no","stimuli/9-Congruent.jpg","m","","","","","right","m","true"
"","176","html-keyboard-response","395","2.0.0","405555","p0c3y7vydr1","smaller","raccoon","see how size affects our perception","no","<p>Correct!</p>","m","","","","","","",""
"","null","html-keyboard-response","396","2.0.0","406562","p0c3y7vydr1","smaller","raccoon","see how size affects our perception","no","<div style=""font-size:60px;"">+</div>","null","","","","","","",""
"","424","image-keyboard-response","397","2.0.0","406987","p0c3y7vydr1","smaller","raccoon","see how size affects our perception","no","stimuli/4-Inongruent.jpg","z","","","","","left","z","true"
"","176","html-keyboard-response","398","2.0.0","407163","p0c3y7vydr1","smaller","raccoon","see how size affects our perception","no","<p>Correct!</p>","z","","","","","","",""
"","null","html-keyboard-response","399","2.0.0","408173","p0c3y7vydr1","smaller","raccoon","see how size affects our perception","no","<div style=""font-size:60px;"">+</div>","null","","","","","","",""
"","373","image-keyboard-response","400","2.0.0","408547","p0c3y7vydr1","smaller","raccoon","see how size affects our perception","no","stimuli/20-Congruent.jpg","m","","","","","right","m","true"
"","192","html-keyboard-response","401","2.0.0","408739","p0c3y7vydr1","smaller","raccoon","see how size affects our perception","no","<p>Correct!</p>","m","","","","","","",""
"","null","html-keyboard-response","402","2.0.0","409743","p0c3y7vydr1","smaller","raccoon","see how size affects our perception","no","<div style=""font-size:60px;"">+</div>","null","","","","","","",""
"","394","image-keyboard-response","403","2.0.0","410139","p0c3y7vydr1","smaller","raccoon","see how size affects our perception","no","stimuli/10-Congruent.jpg","m","","","","","right","m","true"
"","192","html-keyboard-response","404","2.0.0","410331","p0c3y7vydr1","smaller","raccoon","see how size affects our perception","no","<p>Correct!</p>","m","","","","","","",""
"","null","html-keyboard-response","405","2.0.0","411340","p0c3y7vydr1","smaller","raccoon","see how size affects our perception","no","<div style=""font-size:60px;"">+</div>","null","","","","","","",""
"","390","image-keyboard-response","406","2.0.0","411731","p0c3y7vydr1","smaller","raccoon","see how size affects our perception","no","stimuli/7-Inongruent.jpg","z","","","","","left","z","true"
"","192","html-keyboard-response","407","2.0.0","411923","p0c3y7vydr1","smaller","raccoon","see how size affects our perception","no","<p>Correct!</p>","z","","","","","","",""
"","null","html-keyboard-response","408","2.0.0","412934","p0c3y7vydr1","smaller","raccoon","see how size affects our perception","no","<div style=""font-size:60px;"">+</div>","null","","","","","","",""
"","492","image-keyboard-response","409","2.0.0","413427","p0c3y7vydr1","smaller","raccoon","see how size affects our perception","no","stimuli/30-Inongruent.jpg","z","","","","","left","z","true"
"","183","html-keyboard-response","410","2.0.0","413611","p0c3y7vydr1","smaller","raccoon","see how size affects our perception","no","<p>Correct!</p>","z","","","","","","",""
"","null","html-keyboard-response","411","2.0.0","414614","p0c3y7vydr1","smaller","raccoon","see how size affects our perception","no","<div style=""font-size:60px;"">+</div>","null","","","","","","",""
"","420","image-keyboard-response","412","2.0.0","415035","p0c3y7vydr1","smaller","raccoon","see how size affects our perception","no","stimuli/16-Congruent.jpg","m","","","","","right","m","true"
"","184","html-keyboard-response","413","2.0.0","415219","p0c3y7vydr1","smaller","raccoon","see how size affects our perception","no","<p>Correct!</p>","m","","","","","","",""
"","null","html-keyboard-response","414","2.0.0","416228","p0c3y7vydr1","smaller","raccoon","see how size affects our perception","no","<div style=""font-size:60px;"">+</div>","null","","","","","","",""
"","510","image-keyboard-response","415","2.0.0","416739","p0c3y7vydr1","smaller","raccoon","see how size affects our perception","no","stimuli/5-Congruent.jpg","m","","","","","right","m","true"
"","200","html-keyboard-response","416","2.0.0","416939","p0c3y7vydr1","smaller","raccoon","see how size affects our perception","no","<p>Correct!</p>","m","","","","","","",""
"","null","html-keyboard-response","417","2.0.0","417954","p0c3y7vydr1","smaller","raccoon","see how size affects our perception","no","<div style=""font-size:60px;"">+</div>","null","","","","","","",""
"","344","image-keyboard-response","418","2.0.0","418299","p0c3y7vydr1","smaller","raccoon","see how size affects our perception","no","stimuli/29-Inongruent.jpg","z","","","","","left","z","true"
"","183","html-keyboard-response","419","2.0.0","418483","p0c3y7vydr1","smaller","raccoon","see how size affects our perception","no","<p>Correct!</p>","z","","","","","","",""
"","null","html-keyboard-response","420","2.0.0","419495","p0c3y7vydr1","smaller","raccoon","see how size affects our perception","no","<div style=""font-size:60px;"">+</div>","null","","","","","","",""
"","395","image-keyboard-response","421","2.0.0","419891","p0c3y7vydr1","smaller","raccoon","see how size affects our perception","no","stimuli/32-Inongruent.jpg","z","","","","","left","z","true"
"","176","html-keyboard-response","422","2.0.0","420067","p0c3y7vydr1","smaller","raccoon","see how size affects our perception","no","<p>Correct!</p>","z","","","","","","",""
"","null","html-keyboard-response","423","2.0.0","421083","p0c3y7vydr1","smaller","raccoon","see how size affects our perception","no","<div style=""font-size:60px;"">+</div>","null","","","","","","",""
"","311","image-keyboard-response","424","2.0.0","421395","p0c3y7vydr1","smaller","raccoon","see how size affects our perception","no","stimuli/15-Inongruent.jpg","z","","","","","left","z","true"
"","184","html-keyboard-response","425","2.0.0","421579","p0c3y7vydr1","smaller","raccoon","see how size affects our perception","no","<p>Correct!</p>","z","","","","","","",""
"","null","html-keyboard-response","426","2.0.0","422586","p0c3y7vydr1","smaller","raccoon","see how size affects our perception","no","<div style=""font-size:60px;"">+</div>","null","","","","","","",""
"","392","image-keyboard-response","427","2.0.0","422979","p0c3y7vydr1","smaller","raccoon","see how size affects our perception","no","stimuli/3-Inongruent.jpg","z","","","","","left","z","true"
"","264","html-keyboard-response","428","2.0.0","423243","p0c3y7vydr1","smaller","raccoon","see how size affects our perception","no","<p>Correct!</p>","z","","","","","","",""
"","null","html-keyboard-response","429","2.0.0","424247","p0c3y7vydr1","smaller","raccoon","see how size affects our perception","no","<div style=""font-size:60px;"">+</div>","null","","","","","","",""
"","323","image-keyboard-response","430","2.0.0","424571","p0c3y7vydr1","smaller","raccoon","see how size affects our perception","no","stimuli/22-Inongruent.jpg","z","","","","","left","z","true"
"","184","html-keyboard-response","431","2.0.0","424755","p0c3y7vydr1","smaller","raccoon","see how size affects our perception","no","<p>Correct!</p>","z","","","","","","",""
"","null","html-keyboard-response","432","2.0.0","425758","p0c3y7vydr1","smaller","raccoon","see how size affects our perception","no","<div style=""font-size:60px;"">+</div>","null","","","","","","",""
"","396","image-keyboard-response","433","2.0.0","426155","p0c3y7vydr1","smaller","raccoon","see how size affects our perception","no","stimuli/1-Inongruent.jpg","z","","","","","left","z","true"
"","168","html-keyboard-response","434","2.0.0","426323","p0c3y7vydr1","smaller","raccoon","see how size affects our perception","no","<p>Correct!</p>","z","","","","","","",""
"","null","html-keyboard-response","435","2.0.0","427326","p0c3y7vydr1","smaller","raccoon","see how size affects our perception","no","<div style=""font-size:60px;"">+</div>","null","","","","","","",""
"","452","image-keyboard-response","436","2.0.0","427779","p0c3y7vydr1","smaller","raccoon","see how size affects our perception","no","stimuli/30-Congruent.jpg","m","","","","","right","m","true"
"","159","html-keyboard-response","437","2.0.0","427939","p0c3y7vydr1","smaller","raccoon","see how size affects our perception","no","<p>Correct!</p>","m","","","","","","",""
"","168","html-keyboard-response","438","2.0.0","428108","p0c3y7vydr1","smaller","raccoon","see how size affects our perception","no","<p>You have completed the experiment!</p>
              <p>Your accuracy was: 92.36111111111111%.</p>
              <p>Thank you for participating.</p>
              <p>Press any key to continue.</p>","m","","","","","","",""
"","12999","survey-text","439","2.0.0","441107","p0c3y7vydr1","smaller","raccoon","see how size affects our perception","no","","{""participant_thoughts"":""see how size affects our perception""}","","","","","","",""
"","1975","survey-text","440","2.0.0","443083","p0c3y7vydr1","smaller","raccoon","see how size affects our perception","no","","{""participant_difficulties"":""no""}","","","","","","",""
"","2000","html-keyboard-response","441","2.0.0","445083","p0c3y7vydr1","smaller","raccoon","see how size affects our perception","no","<p>The purpose of this experiment is to determine if the real world size of a familiar object is automatically processed when viewed.</p><p>Thank you for participating!</p>","f","","","","","","",""
