"success","rt","trial_type","trial_index","plugin_version","time_elapsed","random_id","condition","participant","participant_thoughts","participant_difficulties","stimulus","response","timeout","failed_images","failed_audio","failed_video","correct_response","correct_response_key","correct"
"true","1446","fullscreen","0","null","2452","p0uwu2pmdrx","smaller"," llama","how we percieve size","no","","","","","","","","",""
"","2859","html-keyboard-response","1","2.0.0","5314","p0uwu2pmdrx","smaller"," llama","how we percieve size","no","Welcome to the Size Stroop experiment. Press any key to begin."," ","","","","","","",""
"","null","html-keyboard-response","2","2.0.0","6317","p0uwu2pmdrx","smaller"," llama","how we percieve size","no","This trial will be in fullscreen mode.","null","","","","","","",""
"","2338","survey-text","3","2.0.0","8660","p0uwu2pmdrx","smaller"," llama","how we percieve size","no","","{""participant_id"":"" llama""}","","","","","","",""
"","8070","html-keyboard-response","4","2.0.0","16732","p0uwu2pmdrx","smaller"," llama","how we percieve size","no","<p>In this experiment, two images will appear on the screen. Identify the <strong>smaller</strong> image.</p>
              <p>If the image on the left is smaller, press ""z"". If the image on the right is smaller, press ""m"".</p>
              <p>Press any key to begin.</p>"," ","","","","","","",""
"true","","preload","5","2.0.0","16933","p0uwu2pmdrx","smaller"," llama","how we percieve size","no","","","false","[]","[]","[]","","",""
"","null","html-keyboard-response","6","2.0.0","17935","p0uwu2pmdrx","smaller"," llama","how we percieve size","no","<div style=""font-size:60px;"">+</div>","null","","","","","","",""
"","581","image-keyboard-response","7","2.0.0","18521","p0uwu2pmdrx","smaller"," llama","how we percieve size","no","stimuli/36-Inongruent.jpg","z","","","","","left","z","true"
"","null","html-keyboard-response","8","2.0.0","19424","p0uwu2pmdrx","smaller"," llama","how we percieve size","no","<p>Correct!</p>","null","","","","","","",""
"","null","html-keyboard-response","9","2.0.0","20427","p0uwu2pmdrx","smaller"," llama","how we percieve size","no","<div style=""font-size:60px;"">+</div>","null","","","","","","",""
"","790","image-keyboard-response","10","2.0.0","21219","p0uwu2pmdrx","smaller"," llama","how we percieve size","no","stimuli/6-Inongruent.jpg","z","","","","","left","z","true"
"","null","html-keyboard-response","11","2.0.0","22121","p0uwu2pmdrx","smaller"," llama","how we percieve size","no","<p>Correct!</p>","null","","","","","","",""
"","null","html-keyboard-response","12","2.0.0","23124","p0uwu2pmdrx","smaller"," llama","how we percieve size","no","<div style=""font-size:60px;"">+</div>","null","","","","","","",""
"","762","image-keyboard-response","13","2.0.0","23888","p0uwu2pmdrx","smaller"," llama","how we percieve size","no","stimuli/32-Congruent.jpg","m","","","","","right","m","true"
"","null","html-keyboard-response","14","2.0.0","24790","p0uwu2pmdrx","smaller"," llama","how we percieve size","no","<p>Correct!</p>","null","","","","","","",""
"","null","html-keyboard-response","15","2.0.0","25792","p0uwu2pmdrx","smaller"," llama","how we percieve size","no","<div style=""font-size:60px;"">+</div>","null","","","","","","",""
"","547","image-keyboard-response","16","2.0.0","26341","p0uwu2pmdrx","smaller"," llama","how we percieve size","no","stimuli/16-Congruent.jpg","m","","","","","right","m","true"
"","null","html-keyboard-response","17","2.0.0","27243","p0uwu2pmdrx","smaller"," llama","how we percieve size","no","<p>Correct!</p>","null","","","","","","",""
"","null","html-keyboard-response","18","2.0.0","28245","p0uwu2pmdrx","smaller"," llama","how we percieve size","no","<div style=""font-size:60px;"">+</div>","null","","","","","","",""
"","634","image-keyboard-response","19","2.0.0","28880","p0uwu2pmdrx","smaller"," llama","how we percieve size","no","stimuli/5-Congruent.jpg","m","","","","","right","m","true"
"","null","html-keyboard-response","20","2.0.0","29782","p0uwu2pmdrx","smaller"," llama","how we percieve size","no","<p>Correct!</p>","null","","","","","","",""
"","null","html-keyboard-response","21","2.0.0","30784","p0uwu2pmdrx","smaller"," llama","how we percieve size","no","<div style=""font-size:60px;"">+</div>","null","","","","","","",""
"","556","image-keyboard-response","22","2.0.0","31342","p0uwu2pmdrx","smaller"," llama","how we percieve size","no","stimuli/15-Inongruent.jpg","z","","","","","left","z","true"
"","null","html-keyboard-response","23","2.0.0","32243","p0uwu2pmdrx","smaller"," llama","how we percieve size","no","<p>Correct!</p>","null","","","","","","",""
"","null","html-keyboard-response","24","2.0.0","33245","p0uwu2pmdrx","smaller"," llama","how we percieve size","no","<div style=""font-size:60px;"">+</div>","null","","","","","","",""
"","846","image-keyboard-response","25","2.0.0","34093","p0uwu2pmdrx","smaller"," llama","how we percieve size","no","stimuli/5-Congruent.jpg","m","","","","","right","m","true"
"","null","html-keyboard-response","26","2.0.0","34995","p0uwu2pmdrx","smaller"," llama","how we percieve size","no","<p>Correct!</p>","null","","","","","","",""
"","null","html-keyboard-response","27","2.0.0","35998","p0uwu2pmdrx","smaller"," llama","how we percieve size","no","<div style=""font-size:60px;"">+</div>","null","","","","","","",""
"","501","image-keyboard-response","28","2.0.0","36500","p0uwu2pmdrx","smaller"," llama","how we percieve size","no","stimuli/4-Inongruent.jpg","z","","","","","left","z","true"
"","null","html-keyboard-response","29","2.0.0","37402","p0uwu2pmdrx","smaller"," llama","how we percieve size","no","<p>Correct!</p>","null","","","","","","",""
"","null","html-keyboard-response","30","2.0.0","38404","p0uwu2pmdrx","smaller"," llama","how we percieve size","no","<div style=""font-size:60px;"">+</div>","null","","","","","","",""
"","436","image-keyboard-response","31","2.0.0","38842","p0uwu2pmdrx","smaller"," llama","how we percieve size","no","stimuli/34-Congruent.jpg","m","","","","","right","m","true"
"","null","html-keyboard-response","32","2.0.0","39744","p0uwu2pmdrx","smaller"," llama","how we percieve size","no","<p>Correct!</p>","null","","","","","","",""
"","null","html-keyboard-response","33","2.0.0","40746","p0uwu2pmdrx","smaller"," llama","how we percieve size","no","<div style=""font-size:60px;"">+</div>","null","","","","","","",""
"","1377","image-keyboard-response","34","2.0.0","42125","p0uwu2pmdrx","smaller"," llama","how we percieve size","no","stimuli/18-Congruent.jpg","m","","","","","right","m","true"
"","null","html-keyboard-response","35","2.0.0","43028","p0uwu2pmdrx","smaller"," llama","how we percieve size","no","<p>Correct!</p>","null","","","","","","",""
"","null","html-keyboard-response","36","2.0.0","44031","p0uwu2pmdrx","smaller"," llama","how we percieve size","no","<div style=""font-size:60px;"">+</div>","null","","","","","","",""
"","633","image-keyboard-response","37","2.0.0","44665","p0uwu2pmdrx","smaller"," llama","how we percieve size","no","stimuli/14-Inongruent.jpg","z","","","","","left","z","true"
"","null","html-keyboard-response","38","2.0.0","45567","p0uwu2pmdrx","smaller"," llama","how we percieve size","no","<p>Correct!</p>","null","","","","","","",""
"","null","html-keyboard-response","39","2.0.0","46570","p0uwu2pmdrx","smaller"," llama","how we percieve size","no","<div style=""font-size:60px;"">+</div>","null","","","","","","",""
"","991","image-keyboard-response","40","2.0.0","47562","p0uwu2pmdrx","smaller"," llama","how we percieve size","no","stimuli/18-Congruent.jpg","m","","","","","right","m","true"
"","null","html-keyboard-response","41","2.0.0","48464","p0uwu2pmdrx","smaller"," llama","how we percieve size","no","<p>Correct!</p>","null","","","","","","",""
"","null","html-keyboard-response","42","2.0.0","49467","p0uwu2pmdrx","smaller"," llama","how we percieve size","no","<div style=""font-size:60px;"">+</div>","null","","","","","","",""
"","607","image-keyboard-response","43","2.0.0","50076","p0uwu2pmdrx","smaller"," llama","how we percieve size","no","stimuli/11-Inongruent.jpg","z","","","","","left","z","true"
"","null","html-keyboard-response","44","2.0.0","50978","p0uwu2pmdrx","smaller"," llama","how we percieve size","no","<p>Correct!</p>","null","","","","","","",""
"","null","html-keyboard-response","45","2.0.0","51980","p0uwu2pmdrx","smaller"," llama","how we percieve size","no","<div style=""font-size:60px;"">+</div>","null","","","","","","",""
"","488","image-keyboard-response","46","2.0.0","52469","p0uwu2pmdrx","smaller"," llama","how we percieve size","no","stimuli/14-Congruent.jpg","m","","","","","right","m","true"
"","null","html-keyboard-response","47","2.0.0","53371","p0uwu2pmdrx","smaller"," llama","how we percieve size","no","<p>Correct!</p>","null","","","","","","",""
"","null","html-keyboard-response","48","2.0.0","54373","p0uwu2pmdrx","smaller"," llama","how we percieve size","no","<div style=""font-size:60px;"">+</div>","null","","","","","","",""
"","431","image-keyboard-response","49","2.0.0","54805","p0uwu2pmdrx","smaller"," llama","how we percieve size","no","stimuli/4-Inongruent.jpg","z","","","","","left","z","true"
"","null","html-keyboard-response","50","2.0.0","55707","p0uwu2pmdrx","smaller"," llama","how we percieve size","no","<p>Correct!</p>","null","","","","","","",""
"","null","html-keyboard-response","51","2.0.0","56710","p0uwu2pmdrx","smaller"," llama","how we percieve size","no","<div style=""font-size:60px;"">+</div>","null","","","","","","",""
"","736","image-keyboard-response","52","2.0.0","57447","p0uwu2pmdrx","smaller"," llama","how we percieve size","no","stimuli/10-Congruent.jpg","m","","","","","right","m","true"
"","null","html-keyboard-response","53","2.0.0","58349","p0uwu2pmdrx","smaller"," llama","how we percieve size","no","<p>Correct!</p>","null","","","","","","",""
"","null","html-keyboard-response","54","2.0.0","59352","p0uwu2pmdrx","smaller"," llama","how we percieve size","no","<div style=""font-size:60px;"">+</div>","null","","","","","","",""
"","598","image-keyboard-response","55","2.0.0","59951","p0uwu2pmdrx","smaller"," llama","how we percieve size","no","stimuli/3-Inongruent.jpg","z","","","","","left","z","true"
"","null","html-keyboard-response","56","2.0.0","60853","p0uwu2pmdrx","smaller"," llama","how we percieve size","no","<p>Correct!</p>","null","","","","","","",""
"","null","html-keyboard-response","57","2.0.0","61856","p0uwu2pmdrx","smaller"," llama","how we percieve size","no","<div style=""font-size:60px;"">+</div>","null","","","","","","",""
"","561","image-keyboard-response","58","2.0.0","62418","p0uwu2pmdrx","smaller"," llama","how we percieve size","no","stimuli/27-Inongruent.jpg","z","","","","","left","z","true"
"","null","html-keyboard-response","59","2.0.0","63321","p0uwu2pmdrx","smaller"," llama","how we percieve size","no","<p>Correct!</p>","null","","","","","","",""
"","null","html-keyboard-response","60","2.0.0","64322","p0uwu2pmdrx","smaller"," llama","how we percieve size","no","<div style=""font-size:60px;"">+</div>","null","","","","","","",""
"","485","image-keyboard-response","61","2.0.0","64808","p0uwu2pmdrx","smaller"," llama","how we percieve size","no","stimuli/5-Inongruent.jpg","z","","","","","left","z","true"
"","null","html-keyboard-response","62","2.0.0","65711","p0uwu2pmdrx","smaller"," llama","how we percieve size","no","<p>Correct!</p>","null","","","","","","",""
"","null","html-keyboard-response","63","2.0.0","66713","p0uwu2pmdrx","smaller"," llama","how we percieve size","no","<div style=""font-size:60px;"">+</div>","null","","","","","","",""
"","832","image-keyboard-response","64","2.0.0","67547","p0uwu2pmdrx","smaller"," llama","how we percieve size","no","stimuli/14-Inongruent.jpg","z","","","","","left","z","true"
"","null","html-keyboard-response","65","2.0.0","68449","p0uwu2pmdrx","smaller"," llama","how we percieve size","no","<p>Correct!</p>","null","","","","","","",""
"","null","html-keyboard-response","66","2.0.0","69452","p0uwu2pmdrx","smaller"," llama","how we percieve size","no","<div style=""font-size:60px;"">+</div>","null","","","","","","",""
"","19193","image-keyboard-response","67","2.0.0","88647","p0uwu2pmdrx","smaller"," llama","how we percieve size","no","stimuli/17-Inongruent.jpg","z","","","","","left","z","true"
"","null","html-keyboard-response","68","2.0.0","89549","p0uwu2pmdrx","smaller"," llama","how we percieve size","no","<p>Correct!</p>","null","","","","","","",""
"","null","html-keyboard-response","69","2.0.0","90551","p0uwu2pmdrx","smaller"," llama","how we percieve size","no","<div style=""font-size:60px;"">+</div>","null","","","","","","",""
"","6403","image-keyboard-response","70","2.0.0","96955","p0uwu2pmdrx","smaller"," llama","how we percieve size","no","stimuli/27-Congruent.jpg","m","","","","","right","m","true"
"","null","html-keyboard-response","71","2.0.0","97857","p0uwu2pmdrx","smaller"," llama","how we percieve size","no","<p>Correct!</p>","null","","","","","","",""
"","null","html-keyboard-response","72","2.0.0","98858","p0uwu2pmdrx","smaller"," llama","how we percieve size","no","<div style=""font-size:60px;"">+</div>","null","","","","","","",""
"","12745","image-keyboard-response","73","2.0.0","111605","p0uwu2pmdrx","smaller"," llama","how we percieve size","no","stimuli/11-Inongruent.jpg","z","","","","","left","z","true"
"","null","html-keyboard-response","74","2.0.0","112507","p0uwu2pmdrx","smaller"," llama","how we percieve size","no","<p>Correct!</p>","null","","","","","","",""
"","null","html-keyboard-response","75","2.0.0","113509","p0uwu2pmdrx","smaller"," llama","how we percieve size","no","<div style=""font-size:60px;"">+</div>","null","","","","","","",""
"","1371","image-keyboard-response","76","2.0.0","114882","p0uwu2pmdrx","smaller"," llama","how we percieve size","no","stimuli/7-Congruent.jpg","m","","","","","right","m","true"
"","null","html-keyboard-response","77","2.0.0","115784","p0uwu2pmdrx","smaller"," llama","how we percieve size","no","<p>Correct!</p>","null","","","","","","",""
"","null","html-keyboard-response","78","2.0.0","116786","p0uwu2pmdrx","smaller"," llama","how we percieve size","no","<div style=""font-size:60px;"">+</div>","null","","","","","","",""
"","4468","image-keyboard-response","79","2.0.0","121255","p0uwu2pmdrx","smaller"," llama","how we percieve size","no","stimuli/15-Inongruent.jpg","z","","","","","left","z","true"
"","null","html-keyboard-response","80","2.0.0","122158","p0uwu2pmdrx","smaller"," llama","how we percieve size","no","<p>Correct!</p>","null","","","","","","",""
"","null","html-keyboard-response","81","2.0.0","123160","p0uwu2pmdrx","smaller"," llama","how we percieve size","no","<div style=""font-size:60px;"">+</div>","null","","","","","","",""
"","538","image-keyboard-response","82","2.0.0","123700","p0uwu2pmdrx","smaller"," llama","how we percieve size","no","stimuli/15-Congruent.jpg","m","","","","","right","m","true"
"","null","html-keyboard-response","83","2.0.0","124602","p0uwu2pmdrx","smaller"," llama","how we percieve size","no","<p>Correct!</p>","null","","","","","","",""
"","null","html-keyboard-response","84","2.0.0","125604","p0uwu2pmdrx","smaller"," llama","how we percieve size","no","<div style=""font-size:60px;"">+</div>","null","","","","","","",""
"","505","image-keyboard-response","85","2.0.0","126111","p0uwu2pmdrx","smaller"," llama","how we percieve size","no","stimuli/35-Congruent.jpg","m","","","","","right","m","true"
"","null","html-keyboard-response","86","2.0.0","127012","p0uwu2pmdrx","smaller"," llama","how we percieve size","no","<p>Correct!</p>","null","","","","","","",""
"","null","html-keyboard-response","87","2.0.0","128014","p0uwu2pmdrx","smaller"," llama","how we percieve size","no","<div style=""font-size:60px;"">+</div>","null","","","","","","",""
"","390","image-keyboard-response","88","2.0.0","128407","p0uwu2pmdrx","smaller"," llama","how we percieve size","no","stimuli/26-Inongruent.jpg","z","","","","","left","z","true"
"","null","html-keyboard-response","89","2.0.0","129310","p0uwu2pmdrx","smaller"," llama","how we percieve size","no","<p>Correct!</p>","null","","","","","","",""
"","null","html-keyboard-response","90","2.0.0","130312","p0uwu2pmdrx","smaller"," llama","how we percieve size","no","<div style=""font-size:60px;"">+</div>","null","","","","","","",""
"","488","image-keyboard-response","91","2.0.0","130803","p0uwu2pmdrx","smaller"," llama","how we percieve size","no","stimuli/1-Congruent.jpg","m","","","","","right","m","true"
"","null","html-keyboard-response","92","2.0.0","131705","p0uwu2pmdrx","smaller"," llama","how we percieve size","no","<p>Correct!</p>","null","","","","","","",""
"","null","html-keyboard-response","93","2.0.0","132708","p0uwu2pmdrx","smaller"," llama","how we percieve size","no","<div style=""font-size:60px;"">+</div>","null","","","","","","",""
"","492","image-keyboard-response","94","2.0.0","133201","p0uwu2pmdrx","smaller"," llama","how we percieve size","no","stimuli/26-Congruent.jpg","m","","","","","right","m","true"
"","null","html-keyboard-response","95","2.0.0","134104","p0uwu2pmdrx","smaller"," llama","how we percieve size","no","<p>Correct!</p>","null","","","","","","",""
"","null","html-keyboard-response","96","2.0.0","135106","p0uwu2pmdrx","smaller"," llama","how we percieve size","no","<div style=""font-size:60px;"">+</div>","null","","","","","","",""
"","944","image-keyboard-response","97","2.0.0","136052","p0uwu2pmdrx","smaller"," llama","how we percieve size","no","stimuli/7-Congruent.jpg","m","","","","","right","m","true"
"","null","html-keyboard-response","98","2.0.0","136955","p0uwu2pmdrx","smaller"," llama","how we percieve size","no","<p>Correct!</p>","null","","","","","","",""
"","null","html-keyboard-response","99","2.0.0","137957","p0uwu2pmdrx","smaller"," llama","how we percieve size","no","<div style=""font-size:60px;"">+</div>","null","","","","","","",""
"","604","image-keyboard-response","100","2.0.0","138562","p0uwu2pmdrx","smaller"," llama","how we percieve size","no","stimuli/15-Congruent.jpg","m","","","","","right","m","true"
"","null","html-keyboard-response","101","2.0.0","139464","p0uwu2pmdrx","smaller"," llama","how we percieve size","no","<p>Correct!</p>","null","","","","","","",""
"","null","html-keyboard-response","102","2.0.0","140467","p0uwu2pmdrx","smaller"," llama","how we percieve size","no","<div style=""font-size:60px;"">+</div>","null","","","","","","",""
"","480","image-keyboard-response","103","2.0.0","140948","p0uwu2pmdrx","smaller"," llama","how we percieve size","no","stimuli/35-Congruent.jpg","m","","","","","right","m","true"
"","null","html-keyboard-response","104","2.0.0","141850","p0uwu2pmdrx","smaller"," llama","how we percieve size","no","<p>Correct!</p>","null","","","","","","",""
"","null","html-keyboard-response","105","2.0.0","142852","p0uwu2pmdrx","smaller"," llama","how we percieve size","no","<div style=""font-size:60px;"">+</div>","null","","","","","","",""
"","406","image-keyboard-response","106","2.0.0","143259","p0uwu2pmdrx","smaller"," llama","how we percieve size","no","stimuli/7-Inongruent.jpg","m","","","","","left","z","false"
"","1797","html-keyboard-response","107","2.0.0","145057","p0uwu2pmdrx","smaller"," llama","how we percieve size","no","<p>Incorrect.</p><p>Remember to select the <b>smaller</b> image.</p><p>Continuing in 5 seconds...</p>"," ","","","","","","",""
"","null","html-keyboard-response","108","2.0.0","146060","p0uwu2pmdrx","smaller"," llama","how we percieve size","no","<div style=""font-size:60px;"">+</div>","null","","","","","","",""
"","454","image-keyboard-response","109","2.0.0","146515","p0uwu2pmdrx","smaller"," llama","how we percieve size","no","stimuli/13-Congruent.jpg","m","","","","","right","m","true"
"","null","html-keyboard-response","110","2.0.0","147418","p0uwu2pmdrx","smaller"," llama","how we percieve size","no","<p>Correct!</p>","null","","","","","","",""
"","null","html-keyboard-response","111","2.0.0","148420","p0uwu2pmdrx","smaller"," llama","how we percieve size","no","<div style=""font-size:60px;"">+</div>","null","","","","","","",""
"","1121","image-keyboard-response","112","2.0.0","149542","p0uwu2pmdrx","smaller"," llama","how we percieve size","no","stimuli/17-Congruent.jpg","m","","","","","right","m","true"
"","null","html-keyboard-response","113","2.0.0","150444","p0uwu2pmdrx","smaller"," llama","how we percieve size","no","<p>Correct!</p>","null","","","","","","",""
"","null","html-keyboard-response","114","2.0.0","151447","p0uwu2pmdrx","smaller"," llama","how we percieve size","no","<div style=""font-size:60px;"">+</div>","null","","","","","","",""
"","459","image-keyboard-response","115","2.0.0","151907","p0uwu2pmdrx","smaller"," llama","how we percieve size","no","stimuli/33-Congruent.jpg","m","","","","","right","m","true"
"","null","html-keyboard-response","116","2.0.0","152810","p0uwu2pmdrx","smaller"," llama","how we percieve size","no","<p>Correct!</p>","null","","","","","","",""
"","null","html-keyboard-response","117","2.0.0","153811","p0uwu2pmdrx","smaller"," llama","how we percieve size","no","<div style=""font-size:60px;"">+</div>","null","","","","","","",""
"","432","image-keyboard-response","118","2.0.0","154244","p0uwu2pmdrx","smaller"," llama","how we percieve size","no","stimuli/8-Congruent.jpg","m","","","","","right","m","true"
"","null","html-keyboard-response","119","2.0.0","155146","p0uwu2pmdrx","smaller"," llama","how we percieve size","no","<p>Correct!</p>","null","","","","","","",""
"","null","html-keyboard-response","120","2.0.0","156148","p0uwu2pmdrx","smaller"," llama","how we percieve size","no","<div style=""font-size:60px;"">+</div>","null","","","","","","",""
"","416","image-keyboard-response","121","2.0.0","156565","p0uwu2pmdrx","smaller"," llama","how we percieve size","no","stimuli/9-Inongruent.jpg","z","","","","","left","z","true"
"","null","html-keyboard-response","122","2.0.0","157468","p0uwu2pmdrx","smaller"," llama","how we percieve size","no","<p>Correct!</p>","null","","","","","","",""
"","null","html-keyboard-response","123","2.0.0","158471","p0uwu2pmdrx","smaller"," llama","how we percieve size","no","<div style=""font-size:60px;"">+</div>","null","","","","","","",""
"","534","image-keyboard-response","124","2.0.0","159007","p0uwu2pmdrx","smaller"," llama","how we percieve size","no","stimuli/28-Congruent.jpg","m","","","","","right","m","true"
"","null","html-keyboard-response","125","2.0.0","159909","p0uwu2pmdrx","smaller"," llama","how we percieve size","no","<p>Correct!</p>","null","","","","","","",""
"","null","html-keyboard-response","126","2.0.0","160912","p0uwu2pmdrx","smaller"," llama","how we percieve size","no","<div style=""font-size:60px;"">+</div>","null","","","","","","",""
"","509","image-keyboard-response","127","2.0.0","161422","p0uwu2pmdrx","smaller"," llama","how we percieve size","no","stimuli/25-Congruent.jpg","m","","","","","right","m","true"
"","null","html-keyboard-response","128","2.0.0","162324","p0uwu2pmdrx","smaller"," llama","how we percieve size","no","<p>Correct!</p>","null","","","","","","",""
"","null","html-keyboard-response","129","2.0.0","163327","p0uwu2pmdrx","smaller"," llama","how we percieve size","no","<div style=""font-size:60px;"">+</div>","null","","","","","","",""
"","14193","image-keyboard-response","130","2.0.0","177522","p0uwu2pmdrx","smaller"," llama","how we percieve size","no","stimuli/11-Congruent.jpg","m","","","","","right","m","true"
"","null","html-keyboard-response","131","2.0.0","178424","p0uwu2pmdrx","smaller"," llama","how we percieve size","no","<p>Correct!</p>","null","","","","","","",""
"","null","html-keyboard-response","132","2.0.0","179426","p0uwu2pmdrx","smaller"," llama","how we percieve size","no","<div style=""font-size:60px;"">+</div>","null","","","","","","",""
"","558","image-keyboard-response","133","2.0.0","179985","p0uwu2pmdrx","smaller"," llama","how we percieve size","no","stimuli/28-Inongruent.jpg","z","","","","","left","z","true"
"","null","html-keyboard-response","134","2.0.0","180887","p0uwu2pmdrx","smaller"," llama","how we percieve size","no","<p>Correct!</p>","null","","","","","","",""
"","null","html-keyboard-response","135","2.0.0","181890","p0uwu2pmdrx","smaller"," llama","how we percieve size","no","<div style=""font-size:60px;"">+</div>","null","","","","","","",""
"","15762","image-keyboard-response","136","2.0.0","197653","p0uwu2pmdrx","smaller"," llama","how we percieve size","no","stimuli/33-Inongruent.jpg","z","","","","","left","z","true"
"","null","html-keyboard-response","137","2.0.0","198556","p0uwu2pmdrx","smaller"," llama","how we percieve size","no","<p>Correct!</p>","null","","","","","","",""
"","null","html-keyboard-response","138","2.0.0","199558","p0uwu2pmdrx","smaller"," llama","how we percieve size","no","<div style=""font-size:60px;"">+</div>","null","","","","","","",""
"","447","image-keyboard-response","139","2.0.0","200008","p0uwu2pmdrx","smaller"," llama","how we percieve size","no","stimuli/3-Congruent.jpg","m","","","","","right","m","true"
"","null","html-keyboard-response","140","2.0.0","200909","p0uwu2pmdrx","smaller"," llama","how we percieve size","no","<p>Correct!</p>","null","","","","","","",""
"","null","html-keyboard-response","141","2.0.0","201911","p0uwu2pmdrx","smaller"," llama","how we percieve size","no","<div style=""font-size:60px;"">+</div>","null","","","","","","",""
"","398","image-keyboard-response","142","2.0.0","202309","p0uwu2pmdrx","smaller"," llama","how we percieve size","no","stimuli/13-Congruent.jpg","m","","","","","right","m","true"
"","null","html-keyboard-response","143","2.0.0","203211","p0uwu2pmdrx","smaller"," llama","how we percieve size","no","<p>Correct!</p>","null","","","","","","",""
"","null","html-keyboard-response","144","2.0.0","204214","p0uwu2pmdrx","smaller"," llama","how we percieve size","no","<div style=""font-size:60px;"">+</div>","null","","","","","","",""
"","370","image-keyboard-response","145","2.0.0","204585","p0uwu2pmdrx","smaller"," llama","how we percieve size","no","stimuli/2-Congruent.jpg","m","","","","","right","m","true"
"","null","html-keyboard-response","146","2.0.0","205487","p0uwu2pmdrx","smaller"," llama","how we percieve size","no","<p>Correct!</p>","null","","","","","","",""
"","null","html-keyboard-response","147","2.0.0","206489","p0uwu2pmdrx","smaller"," llama","how we percieve size","no","<div style=""font-size:60px;"">+</div>","null","","","","","","",""
"","408","image-keyboard-response","148","2.0.0","206898","p0uwu2pmdrx","smaller"," llama","how we percieve size","no","stimuli/24-Inongruent.jpg","z","","","","","left","z","true"
"","null","html-keyboard-response","149","2.0.0","207801","p0uwu2pmdrx","smaller"," llama","how we percieve size","no","<p>Correct!</p>","null","","","","","","",""
"","null","html-keyboard-response","150","2.0.0","208803","p0uwu2pmdrx","smaller"," llama","how we percieve size","no","<div style=""font-size:60px;"">+</div>","null","","","","","","",""
"","361","image-keyboard-response","151","2.0.0","209165","p0uwu2pmdrx","smaller"," llama","how we percieve size","no","stimuli/35-Inongruent.jpg","z","","","","","left","z","true"
"","null","html-keyboard-response","152","2.0.0","210067","p0uwu2pmdrx","smaller"," llama","how we percieve size","no","<p>Correct!</p>","null","","","","","","",""
"","null","html-keyboard-response","153","2.0.0","211070","p0uwu2pmdrx","smaller"," llama","how we percieve size","no","<div style=""font-size:60px;"">+</div>","null","","","","","","",""
"","298","image-keyboard-response","154","2.0.0","211369","p0uwu2pmdrx","smaller"," llama","how we percieve size","no","stimuli/16-Congruent.jpg","m","","","","","right","m","true"
"","null","html-keyboard-response","155","2.0.0","212273","p0uwu2pmdrx","smaller"," llama","how we percieve size","no","<p>Correct!</p>","null","","","","","","",""
"","null","html-keyboard-response","156","2.0.0","213275","p0uwu2pmdrx","smaller"," llama","how we percieve size","no","<div style=""font-size:60px;"">+</div>","null","","","","","","",""
"","486","image-keyboard-response","157","2.0.0","213762","p0uwu2pmdrx","smaller"," llama","how we percieve size","no","stimuli/33-Inongruent.jpg","z","","","","","left","z","true"
"","null","html-keyboard-response","158","2.0.0","214664","p0uwu2pmdrx","smaller"," llama","how we percieve size","no","<p>Correct!</p>","null","","","","","","",""
"","null","html-keyboard-response","159","2.0.0","215666","p0uwu2pmdrx","smaller"," llama","how we percieve size","no","<div style=""font-size:60px;"">+</div>","null","","","","","","",""
"","393","image-keyboard-response","160","2.0.0","216061","p0uwu2pmdrx","smaller"," llama","how we percieve size","no","stimuli/11-Congruent.jpg","m","","","","","right","m","true"
"","null","html-keyboard-response","161","2.0.0","216962","p0uwu2pmdrx","smaller"," llama","how we percieve size","no","<p>Correct!</p>","null","","","","","","",""
"","null","html-keyboard-response","162","2.0.0","217964","p0uwu2pmdrx","smaller"," llama","how we percieve size","no","<div style=""font-size:60px;"">+</div>","null","","","","","","",""
"","687","image-keyboard-response","163","2.0.0","218653","p0uwu2pmdrx","smaller"," llama","how we percieve size","no","stimuli/24-Congruent.jpg","m","","","","","right","m","true"
"","null","html-keyboard-response","164","2.0.0","219555","p0uwu2pmdrx","smaller"," llama","how we percieve size","no","<p>Correct!</p>","null","","","","","","",""
"","null","html-keyboard-response","165","2.0.0","220557","p0uwu2pmdrx","smaller"," llama","how we percieve size","no","<div style=""font-size:60px;"">+</div>","null","","","","","","",""
"","344","image-keyboard-response","166","2.0.0","220903","p0uwu2pmdrx","smaller"," llama","how we percieve size","no","stimuli/10-Inongruent.jpg","z","","","","","left","z","true"
"","null","html-keyboard-response","167","2.0.0","221805","p0uwu2pmdrx","smaller"," llama","how we percieve size","no","<p>Correct!</p>","null","","","","","","",""
"","null","html-keyboard-response","168","2.0.0","222807","p0uwu2pmdrx","smaller"," llama","how we percieve size","no","<div style=""font-size:60px;"">+</div>","null","","","","","","",""
"","384","image-keyboard-response","169","2.0.0","223193","p0uwu2pmdrx","smaller"," llama","how we percieve size","no","stimuli/2-Inongruent.jpg","z","","","","","left","z","true"
"","null","html-keyboard-response","170","2.0.0","224096","p0uwu2pmdrx","smaller"," llama","how we percieve size","no","<p>Correct!</p>","null","","","","","","",""
"","null","html-keyboard-response","171","2.0.0","225098","p0uwu2pmdrx","smaller"," llama","how we percieve size","no","<div style=""font-size:60px;"">+</div>","null","","","","","","",""
"","364","image-keyboard-response","172","2.0.0","225464","p0uwu2pmdrx","smaller"," llama","how we percieve size","no","stimuli/29-Congruent.jpg","m","","","","","right","m","true"
"","null","html-keyboard-response","173","2.0.0","226367","p0uwu2pmdrx","smaller"," llama","how we percieve size","no","<p>Correct!</p>","null","","","","","","",""
"","null","html-keyboard-response","174","2.0.0","227369","p0uwu2pmdrx","smaller"," llama","how we percieve size","no","<div style=""font-size:60px;"">+</div>","null","","","","","","",""
"","891","image-keyboard-response","175","2.0.0","228261","p0uwu2pmdrx","smaller"," llama","how we percieve size","no","stimuli/20-Inongruent.jpg","z","","","","","left","z","true"
"","null","html-keyboard-response","176","2.0.0","229164","p0uwu2pmdrx","smaller"," llama","how we percieve size","no","<p>Correct!</p>","null","","","","","","",""
"","null","html-keyboard-response","177","2.0.0","230166","p0uwu2pmdrx","smaller"," llama","how we percieve size","no","<div style=""font-size:60px;"">+</div>","null","","","","","","",""
"","37022","image-keyboard-response","178","2.0.0","267190","p0uwu2pmdrx","smaller"," llama","how we percieve size","no","stimuli/21-Inongruent.jpg","z","","","","","left","z","true"
"","null","html-keyboard-response","179","2.0.0","268091","p0uwu2pmdrx","smaller"," llama","how we percieve size","no","<p>Correct!</p>","null","","","","","","",""
"","null","html-keyboard-response","180","2.0.0","269093","p0uwu2pmdrx","smaller"," llama","how we percieve size","no","<div style=""font-size:60px;"">+</div>","null","","","","","","",""
"","368","image-keyboard-response","181","2.0.0","269461","p0uwu2pmdrx","smaller"," llama","how we percieve size","no","stimuli/5-Inongruent.jpg","z","","","","","left","z","true"
"","null","html-keyboard-response","182","2.0.0","270363","p0uwu2pmdrx","smaller"," llama","how we percieve size","no","<p>Correct!</p>","null","","","","","","",""
"","null","html-keyboard-response","183","2.0.0","271365","p0uwu2pmdrx","smaller"," llama","how we percieve size","no","<div style=""font-size:60px;"">+</div>","null","","","","","","",""
"","316","image-keyboard-response","184","2.0.0","271682","p0uwu2pmdrx","smaller"," llama","how we percieve size","no","stimuli/22-Congruent.jpg","m","","","","","right","m","true"
"","null","html-keyboard-response","185","2.0.0","272583","p0uwu2pmdrx","smaller"," llama","how we percieve size","no","<p>Correct!</p>","null","","","","","","",""
"","null","html-keyboard-response","186","2.0.0","273585","p0uwu2pmdrx","smaller"," llama","how we percieve size","no","<div style=""font-size:60px;"">+</div>","null","","","","","","",""
"","442","image-keyboard-response","187","2.0.0","274027","p0uwu2pmdrx","smaller"," llama","how we percieve size","no","stimuli/34-Congruent.jpg","m","","","","","right","m","true"
"","null","html-keyboard-response","188","2.0.0","274929","p0uwu2pmdrx","smaller"," llama","how we percieve size","no","<p>Correct!</p>","null","","","","","","",""
"","null","html-keyboard-response","189","2.0.0","275931","p0uwu2pmdrx","smaller"," llama","how we percieve size","no","<div style=""font-size:60px;"">+</div>","null","","","","","","",""
"","386","image-keyboard-response","190","2.0.0","276319","p0uwu2pmdrx","smaller"," llama","how we percieve size","no","stimuli/21-Congruent.jpg","m","","","","","right","m","true"
"","null","html-keyboard-response","191","2.0.0","277221","p0uwu2pmdrx","smaller"," llama","how we percieve size","no","<p>Correct!</p>","null","","","","","","",""
"","null","html-keyboard-response","192","2.0.0","278223","p0uwu2pmdrx","smaller"," llama","how we percieve size","no","<div style=""font-size:60px;"">+</div>","null","","","","","","",""
"","394","image-keyboard-response","193","2.0.0","278618","p0uwu2pmdrx","smaller"," llama","how we percieve size","no","stimuli/18-Inongruent.jpg","z","","","","","left","z","true"
"","null","html-keyboard-response","194","2.0.0","279520","p0uwu2pmdrx","smaller"," llama","how we percieve size","no","<p>Correct!</p>","null","","","","","","",""
"","null","html-keyboard-response","195","2.0.0","280522","p0uwu2pmdrx","smaller"," llama","how we percieve size","no","<div style=""font-size:60px;"">+</div>","null","","","","","","",""
"","328","image-keyboard-response","196","2.0.0","280852","p0uwu2pmdrx","smaller"," llama","how we percieve size","no","stimuli/19-Inongruent.jpg","z","","","","","left","z","true"
"","null","html-keyboard-response","197","2.0.0","281754","p0uwu2pmdrx","smaller"," llama","how we percieve size","no","<p>Correct!</p>","null","","","","","","",""
"","null","html-keyboard-response","198","2.0.0","282757","p0uwu2pmdrx","smaller"," llama","how we percieve size","no","<div style=""font-size:60px;"">+</div>","null","","","","","","",""
"","345","image-keyboard-response","199","2.0.0","283103","p0uwu2pmdrx","smaller"," llama","how we percieve size","no","stimuli/30-Congruent.jpg","m","","","","","right","m","true"
"","null","html-keyboard-response","200","2.0.0","284005","p0uwu2pmdrx","smaller"," llama","how we percieve size","no","<p>Correct!</p>","null","","","","","","",""
"","null","html-keyboard-response","201","2.0.0","285007","p0uwu2pmdrx","smaller"," llama","how we percieve size","no","<div style=""font-size:60px;"">+</div>","null","","","","","","",""
"","987","image-keyboard-response","202","2.0.0","285996","p0uwu2pmdrx","smaller"," llama","how we percieve size","no","stimuli/36-Congruent.jpg","m","","","","","right","m","true"
"","null","html-keyboard-response","203","2.0.0","286898","p0uwu2pmdrx","smaller"," llama","how we percieve size","no","<p>Correct!</p>","null","","","","","","",""
"","null","html-keyboard-response","204","2.0.0","287900","p0uwu2pmdrx","smaller"," llama","how we percieve size","no","<div style=""font-size:60px;"">+</div>","null","","","","","","",""
"","365","image-keyboard-response","205","2.0.0","288266","p0uwu2pmdrx","smaller"," llama","how we percieve size","no","stimuli/1-Inongruent.jpg","z","","","","","left","z","true"
"","null","html-keyboard-response","206","2.0.0","289168","p0uwu2pmdrx","smaller"," llama","how we percieve size","no","<p>Correct!</p>","null","","","","","","",""
"","null","html-keyboard-response","207","2.0.0","290170","p0uwu2pmdrx","smaller"," llama","how we percieve size","no","<div style=""font-size:60px;"">+</div>","null","","","","","","",""
"","372","image-keyboard-response","208","2.0.0","290543","p0uwu2pmdrx","smaller"," llama","how we percieve size","no","stimuli/12-Congruent.jpg","m","","","","","right","m","true"
"","null","html-keyboard-response","209","2.0.0","291445","p0uwu2pmdrx","smaller"," llama","how we percieve size","no","<p>Correct!</p>","null","","","","","","",""
"","null","html-keyboard-response","210","2.0.0","292447","p0uwu2pmdrx","smaller"," llama","how we percieve size","no","<div style=""font-size:60px;"">+</div>","null","","","","","","",""
"","425","image-keyboard-response","211","2.0.0","292875","p0uwu2pmdrx","smaller"," llama","how we percieve size","no","stimuli/32-Inongruent.jpg","z","","","","","left","z","true"
"","null","html-keyboard-response","212","2.0.0","293777","p0uwu2pmdrx","smaller"," llama","how we percieve size","no","<p>Correct!</p>","null","","","","","","",""
"","null","html-keyboard-response","213","2.0.0","294779","p0uwu2pmdrx","smaller"," llama","how we percieve size","no","<div style=""font-size:60px;"">+</div>","null","","","","","","",""
"","431","image-keyboard-response","214","2.0.0","295211","p0uwu2pmdrx","smaller"," llama","how we percieve size","no","stimuli/22-Inongruent.jpg","z","","","","","left","z","true"
"","null","html-keyboard-response","215","2.0.0","296113","p0uwu2pmdrx","smaller"," llama","how we percieve size","no","<p>Correct!</p>","null","","","","","","",""
"","null","html-keyboard-response","216","2.0.0","297116","p0uwu2pmdrx","smaller"," llama","how we percieve size","no","<div style=""font-size:60px;"">+</div>","null","","","","","","",""
"","592","image-keyboard-response","217","2.0.0","297709","p0uwu2pmdrx","smaller"," llama","how we percieve size","no","stimuli/3-Congruent.jpg","m","","","","","right","m","true"
"","null","html-keyboard-response","218","2.0.0","298611","p0uwu2pmdrx","smaller"," llama","how we percieve size","no","<p>Correct!</p>","null","","","","","","",""
"","null","html-keyboard-response","219","2.0.0","299614","p0uwu2pmdrx","smaller"," llama","how we percieve size","no","<div style=""font-size:60px;"">+</div>","null","","","","","","",""
"","893","image-keyboard-response","220","2.0.0","300508","p0uwu2pmdrx","smaller"," llama","how we percieve size","no","stimuli/36-Congruent.jpg","m","","","","","right","m","true"
"","null","html-keyboard-response","221","2.0.0","301411","p0uwu2pmdrx","smaller"," llama","how we percieve size","no","<p>Correct!</p>","null","","","","","","",""
"","null","html-keyboard-response","222","2.0.0","302413","p0uwu2pmdrx","smaller"," llama","how we percieve size","no","<div style=""font-size:60px;"">+</div>","null","","","","","","",""
"","406","image-keyboard-response","223","2.0.0","302820","p0uwu2pmdrx","smaller"," llama","how we percieve size","no","stimuli/13-Inongruent.jpg","z","","","","","left","z","true"
"","null","html-keyboard-response","224","2.0.0","303721","p0uwu2pmdrx","smaller"," llama","how we percieve size","no","<p>Correct!</p>","null","","","","","","",""
"","null","html-keyboard-response","225","2.0.0","304723","p0uwu2pmdrx","smaller"," llama","how we percieve size","no","<div style=""font-size:60px;"">+</div>","null","","","","","","",""
"","375","image-keyboard-response","226","2.0.0","305099","p0uwu2pmdrx","smaller"," llama","how we percieve size","no","stimuli/28-Inongruent.jpg","z","","","","","left","z","true"
"","null","html-keyboard-response","227","2.0.0","306002","p0uwu2pmdrx","smaller"," llama","how we percieve size","no","<p>Correct!</p>","null","","","","","","",""
"","null","html-keyboard-response","228","2.0.0","307003","p0uwu2pmdrx","smaller"," llama","how we percieve size","no","<div style=""font-size:60px;"">+</div>","null","","","","","","",""
"","507","image-keyboard-response","229","2.0.0","307512","p0uwu2pmdrx","smaller"," llama","how we percieve size","no","stimuli/25-Inongruent.jpg","z","","","","","left","z","true"
"","null","html-keyboard-response","230","2.0.0","308414","p0uwu2pmdrx","smaller"," llama","how we percieve size","no","<p>Correct!</p>","null","","","","","","",""
"","null","html-keyboard-response","231","2.0.0","309416","p0uwu2pmdrx","smaller"," llama","how we percieve size","no","<div style=""font-size:60px;"">+</div>","null","","","","","","",""
"","343","image-keyboard-response","232","2.0.0","309761","p0uwu2pmdrx","smaller"," llama","how we percieve size","no","stimuli/23-Congruent.jpg","m","","","","","right","m","true"
"","null","html-keyboard-response","233","2.0.0","310664","p0uwu2pmdrx","smaller"," llama","how we percieve size","no","<p>Correct!</p>","null","","","","","","",""
"","null","html-keyboard-response","234","2.0.0","311666","p0uwu2pmdrx","smaller"," llama","how we percieve size","no","<div style=""font-size:60px;"">+</div>","null","","","","","","",""
"","523","image-keyboard-response","235","2.0.0","312191","p0uwu2pmdrx","smaller"," llama","how we percieve size","no","stimuli/1-Congruent.jpg","m","","","","","right","m","true"
"","null","html-keyboard-response","236","2.0.0","313093","p0uwu2pmdrx","smaller"," llama","how we percieve size","no","<p>Correct!</p>","null","","","","","","",""
"","null","html-keyboard-response","237","2.0.0","314096","p0uwu2pmdrx","smaller"," llama","how we percieve size","no","<div style=""font-size:60px;"">+</div>","null","","","","","","",""
"","373","image-keyboard-response","238","2.0.0","314470","p0uwu2pmdrx","smaller"," llama","how we percieve size","no","stimuli/23-Inongruent.jpg","z","","","","","left","z","true"
"","null","html-keyboard-response","239","2.0.0","315372","p0uwu2pmdrx","smaller"," llama","how we percieve size","no","<p>Correct!</p>","null","","","","","","",""
"","null","html-keyboard-response","240","2.0.0","316373","p0uwu2pmdrx","smaller"," llama","how we percieve size","no","<div style=""font-size:60px;"">+</div>","null","","","","","","",""
"","362","image-keyboard-response","241","2.0.0","316736","p0uwu2pmdrx","smaller"," llama","how we percieve size","no","stimuli/20-Congruent.jpg","m","","","","","right","m","true"
"","null","html-keyboard-response","242","2.0.0","317638","p0uwu2pmdrx","smaller"," llama","how we percieve size","no","<p>Correct!</p>","null","","","","","","",""
"","null","html-keyboard-response","243","2.0.0","318640","p0uwu2pmdrx","smaller"," llama","how we percieve size","no","<div style=""font-size:60px;"">+</div>","null","","","","","","",""
"","640","image-keyboard-response","244","2.0.0","319282","p0uwu2pmdrx","smaller"," llama","how we percieve size","no","stimuli/27-Congruent.jpg","m","","","","","right","m","true"
"","null","html-keyboard-response","245","2.0.0","320184","p0uwu2pmdrx","smaller"," llama","how we percieve size","no","<p>Correct!</p>","null","","","","","","",""
"","null","html-keyboard-response","246","2.0.0","321186","p0uwu2pmdrx","smaller"," llama","how we percieve size","no","<div style=""font-size:60px;"">+</div>","null","","","","","","",""
"","403","image-keyboard-response","247","2.0.0","321590","p0uwu2pmdrx","smaller"," llama","how we percieve size","no","stimuli/14-Congruent.jpg","m","","","","","right","m","true"
"","null","html-keyboard-response","248","2.0.0","322492","p0uwu2pmdrx","smaller"," llama","how we percieve size","no","<p>Correct!</p>","null","","","","","","",""
"","null","html-keyboard-response","249","2.0.0","323493","p0uwu2pmdrx","smaller"," llama","how we percieve size","no","<div style=""font-size:60px;"">+</div>","null","","","","","","",""
"","483","image-keyboard-response","250","2.0.0","323977","p0uwu2pmdrx","smaller"," llama","how we percieve size","no","stimuli/2-Inongruent.jpg","z","","","","","left","z","true"
"","null","html-keyboard-response","251","2.0.0","324880","p0uwu2pmdrx","smaller"," llama","how we percieve size","no","<p>Correct!</p>","null","","","","","","",""
"","null","html-keyboard-response","252","2.0.0","325882","p0uwu2pmdrx","smaller"," llama","how we percieve size","no","<div style=""font-size:60px;"">+</div>","null","","","","","","",""
"","1140","image-keyboard-response","253","2.0.0","327023","p0uwu2pmdrx","smaller"," llama","how we percieve size","no","stimuli/34-Inongruent.jpg","z","","","","","left","z","true"
"","null","html-keyboard-response","254","2.0.0","327925","p0uwu2pmdrx","smaller"," llama","how we percieve size","no","<p>Correct!</p>","null","","","","","","",""
"","null","html-keyboard-response","255","2.0.0","328928","p0uwu2pmdrx","smaller"," llama","how we percieve size","no","<div style=""font-size:60px;"">+</div>","null","","","","","","",""
"","12965","image-keyboard-response","256","2.0.0","341894","p0uwu2pmdrx","smaller"," llama","how we percieve size","no","stimuli/12-Congruent.jpg","m","","","","","right","m","true"
"","null","html-keyboard-response","257","2.0.0","342795","p0uwu2pmdrx","smaller"," llama","how we percieve size","no","<p>Correct!</p>","null","","","","","","",""
"","null","html-keyboard-response","258","2.0.0","343798","p0uwu2pmdrx","smaller"," llama","how we percieve size","no","<div style=""font-size:60px;"">+</div>","null","","","","","","",""
"","1114","image-keyboard-response","259","2.0.0","344914","p0uwu2pmdrx","smaller"," llama","how we percieve size","no","stimuli/29-Inongruent.jpg","z","","","","","left","z","true"
"","null","html-keyboard-response","260","2.0.0","345816","p0uwu2pmdrx","smaller"," llama","how we percieve size","no","<p>Correct!</p>","null","","","","","","",""
"","null","html-keyboard-response","261","2.0.0","346818","p0uwu2pmdrx","smaller"," llama","how we percieve size","no","<div style=""font-size:60px;"">+</div>","null","","","","","","",""
"","376","image-keyboard-response","262","2.0.0","347195","p0uwu2pmdrx","smaller"," llama","how we percieve size","no","stimuli/21-Inongruent.jpg","m","","","","","left","z","false"
"","629","html-keyboard-response","263","2.0.0","347825","p0uwu2pmdrx","smaller"," llama","how we percieve size","no","<p>Incorrect.</p><p>Remember to select the <b>smaller</b> image.</p><p>Continuing in 5 seconds...</p>","m","","","","","","",""
"","null","html-keyboard-response","264","2.0.0","348827","p0uwu2pmdrx","smaller"," llama","how we percieve size","no","<div style=""font-size:60px;"">+</div>","null","","","","","","",""
"","480","image-keyboard-response","265","2.0.0","349308","p0uwu2pmdrx","smaller"," llama","how we percieve size","no","stimuli/19-Inongruent.jpg","z","","","","","left","z","true"
"","null","html-keyboard-response","266","2.0.0","350211","p0uwu2pmdrx","smaller"," llama","how we percieve size","no","<p>Correct!</p>","null","","","","","","",""
"","null","html-keyboard-response","267","2.0.0","351213","p0uwu2pmdrx","smaller"," llama","how we percieve size","no","<div style=""font-size:60px;"">+</div>","null","","","","","","",""
"","650","image-keyboard-response","268","2.0.0","351865","p0uwu2pmdrx","smaller"," llama","how we percieve size","no","stimuli/31-Congruent.jpg","m","","","","","right","m","true"
"","null","html-keyboard-response","269","2.0.0","352767","p0uwu2pmdrx","smaller"," llama","how we percieve size","no","<p>Correct!</p>","null","","","","","","",""
"","null","html-keyboard-response","270","2.0.0","353769","p0uwu2pmdrx","smaller"," llama","how we percieve size","no","<div style=""font-size:60px;"">+</div>","null","","","","","","",""
"","543","image-keyboard-response","271","2.0.0","354313","p0uwu2pmdrx","smaller"," llama","how we percieve size","no","stimuli/29-Inongruent.jpg","z","","","","","left","z","true"
"","null","html-keyboard-response","272","2.0.0","355214","p0uwu2pmdrx","smaller"," llama","how we percieve size","no","<p>Correct!</p>","null","","","","","","",""
"","null","html-keyboard-response","273","2.0.0","356217","p0uwu2pmdrx","smaller"," llama","how we percieve size","no","<div style=""font-size:60px;"">+</div>","null","","","","","","",""
"","520","image-keyboard-response","274","2.0.0","356738","p0uwu2pmdrx","smaller"," llama","how we percieve size","no","stimuli/36-Inongruent.jpg","z","","","","","left","z","true"
"","null","html-keyboard-response","275","2.0.0","357640","p0uwu2pmdrx","smaller"," llama","how we percieve size","no","<p>Correct!</p>","null","","","","","","",""
"","null","html-keyboard-response","276","2.0.0","358642","p0uwu2pmdrx","smaller"," llama","how we percieve size","no","<div style=""font-size:60px;"">+</div>","null","","","","","","",""
"","441","image-keyboard-response","277","2.0.0","359084","p0uwu2pmdrx","smaller"," llama","how we percieve size","no","stimuli/6-Congruent.jpg","m","","","","","right","m","true"
"","null","html-keyboard-response","278","2.0.0","359986","p0uwu2pmdrx","smaller"," llama","how we percieve size","no","<p>Correct!</p>","null","","","","","","",""
"","null","html-keyboard-response","279","2.0.0","360989","p0uwu2pmdrx","smaller"," llama","how we percieve size","no","<div style=""font-size:60px;"">+</div>","null","","","","","","",""
"","369","image-keyboard-response","280","2.0.0","361359","p0uwu2pmdrx","smaller"," llama","how we percieve size","no","stimuli/17-Inongruent.jpg","z","","","","","left","z","true"
"","null","html-keyboard-response","281","2.0.0","362261","p0uwu2pmdrx","smaller"," llama","how we percieve size","no","<p>Correct!</p>","null","","","","","","",""
"","null","html-keyboard-response","282","2.0.0","363264","p0uwu2pmdrx","smaller"," llama","how we percieve size","no","<div style=""font-size:60px;"">+</div>","null","","","","","","",""
"","427","image-keyboard-response","283","2.0.0","363693","p0uwu2pmdrx","smaller"," llama","how we percieve size","no","stimuli/16-Inongruent.jpg","z","","","","","left","z","true"
"","null","html-keyboard-response","284","2.0.0","364594","p0uwu2pmdrx","smaller"," llama","how we percieve size","no","<p>Correct!</p>","null","","","","","","",""
"","null","html-keyboard-response","285","2.0.0","365596","p0uwu2pmdrx","smaller"," llama","how we percieve size","no","<div style=""font-size:60px;"">+</div>","null","","","","","","",""
"","454","image-keyboard-response","286","2.0.0","366051","p0uwu2pmdrx","smaller"," llama","how we percieve size","no","stimuli/10-Inongruent.jpg","z","","","","","left","z","true"
"","null","html-keyboard-response","287","2.0.0","366953","p0uwu2pmdrx","smaller"," llama","how we percieve size","no","<p>Correct!</p>","null","","","","","","",""
"","null","html-keyboard-response","288","2.0.0","367955","p0uwu2pmdrx","smaller"," llama","how we percieve size","no","<div style=""font-size:60px;"">+</div>","null","","","","","","",""
"","476","image-keyboard-response","289","2.0.0","368433","p0uwu2pmdrx","smaller"," llama","how we percieve size","no","stimuli/30-Inongruent.jpg","z","","","","","left","z","true"
"","null","html-keyboard-response","290","2.0.0","369335","p0uwu2pmdrx","smaller"," llama","how we percieve size","no","<p>Correct!</p>","null","","","","","","",""
"","null","html-keyboard-response","291","2.0.0","370337","p0uwu2pmdrx","smaller"," llama","how we percieve size","no","<div style=""font-size:60px;"">+</div>","null","","","","","","",""
"","695","image-keyboard-response","292","2.0.0","371033","p0uwu2pmdrx","smaller"," llama","how we percieve size","no","stimuli/20-Inongruent.jpg","z","","","","","left","z","true"
"","null","html-keyboard-response","293","2.0.0","371935","p0uwu2pmdrx","smaller"," llama","how we percieve size","no","<p>Correct!</p>","null","","","","","","",""
"","null","html-keyboard-response","294","2.0.0","372937","p0uwu2pmdrx","smaller"," llama","how we percieve size","no","<div style=""font-size:60px;"">+</div>","null","","","","","","",""
"","765","image-keyboard-response","295","2.0.0","373703","p0uwu2pmdrx","smaller"," llama","how we percieve size","no","stimuli/26-Inongruent.jpg","z","","","","","left","z","true"
"","null","html-keyboard-response","296","2.0.0","374605","p0uwu2pmdrx","smaller"," llama","how we percieve size","no","<p>Correct!</p>","null","","","","","","",""
"","null","html-keyboard-response","297","2.0.0","375607","p0uwu2pmdrx","smaller"," llama","how we percieve size","no","<div style=""font-size:60px;"">+</div>","null","","","","","","",""
"","549","image-keyboard-response","298","2.0.0","376157","p0uwu2pmdrx","smaller"," llama","how we percieve size","no","stimuli/26-Congruent.jpg","m","","","","","right","m","true"
"","null","html-keyboard-response","299","2.0.0","377059","p0uwu2pmdrx","smaller"," llama","how we percieve size","no","<p>Correct!</p>","null","","","","","","",""
"","null","html-keyboard-response","300","2.0.0","378061","p0uwu2pmdrx","smaller"," llama","how we percieve size","no","<div style=""font-size:60px;"">+</div>","null","","","","","","",""
"","1482","image-keyboard-response","301","2.0.0","379544","p0uwu2pmdrx","smaller"," llama","how we percieve size","no","stimuli/17-Congruent.jpg","m","","","","","right","m","true"
"","null","html-keyboard-response","302","2.0.0","380446","p0uwu2pmdrx","smaller"," llama","how we percieve size","no","<p>Correct!</p>","null","","","","","","",""
"","null","html-keyboard-response","303","2.0.0","381449","p0uwu2pmdrx","smaller"," llama","how we percieve size","no","<div style=""font-size:60px;"">+</div>","null","","","","","","",""
"","431","image-keyboard-response","304","2.0.0","381882","p0uwu2pmdrx","smaller"," llama","how we percieve size","no","stimuli/3-Inongruent.jpg","z","","","","","left","z","true"
"","null","html-keyboard-response","305","2.0.0","382784","p0uwu2pmdrx","smaller"," llama","how we percieve size","no","<p>Correct!</p>","null","","","","","","",""
"","null","html-keyboard-response","306","2.0.0","383787","p0uwu2pmdrx","smaller"," llama","how we percieve size","no","<div style=""font-size:60px;"">+</div>","null","","","","","","",""
"","470","image-keyboard-response","307","2.0.0","384259","p0uwu2pmdrx","smaller"," llama","how we percieve size","no","stimuli/19-Congruent.jpg","m","","","","","right","m","true"
"","null","html-keyboard-response","308","2.0.0","385161","p0uwu2pmdrx","smaller"," llama","how we percieve size","no","<p>Correct!</p>","null","","","","","","",""
"","null","html-keyboard-response","309","2.0.0","386164","p0uwu2pmdrx","smaller"," llama","how we percieve size","no","<div style=""font-size:60px;"">+</div>","null","","","","","","",""
"","417","image-keyboard-response","310","2.0.0","386582","p0uwu2pmdrx","smaller"," llama","how we percieve size","no","stimuli/33-Congruent.jpg","m","","","","","right","m","true"
"","null","html-keyboard-response","311","2.0.0","387484","p0uwu2pmdrx","smaller"," llama","how we percieve size","no","<p>Correct!</p>","null","","","","","","",""
"","null","html-keyboard-response","312","2.0.0","388487","p0uwu2pmdrx","smaller"," llama","how we percieve size","no","<div style=""font-size:60px;"">+</div>","null","","","","","","",""
"","683","image-keyboard-response","313","2.0.0","389171","p0uwu2pmdrx","smaller"," llama","how we percieve size","no","stimuli/8-Congruent.jpg","m","","","","","right","m","true"
"","null","html-keyboard-response","314","2.0.0","390073","p0uwu2pmdrx","smaller"," llama","how we percieve size","no","<p>Correct!</p>","null","","","","","","",""
"","null","html-keyboard-response","315","2.0.0","391076","p0uwu2pmdrx","smaller"," llama","how we percieve size","no","<div style=""font-size:60px;"">+</div>","null","","","","","","",""
"","529","image-keyboard-response","316","2.0.0","391606","p0uwu2pmdrx","smaller"," llama","how we percieve size","no","stimuli/2-Congruent.jpg","m","","","","","right","m","true"
"","null","html-keyboard-response","317","2.0.0","392508","p0uwu2pmdrx","smaller"," llama","how we percieve size","no","<p>Correct!</p>","null","","","","","","",""
"","null","html-keyboard-response","318","2.0.0","393510","p0uwu2pmdrx","smaller"," llama","how we percieve size","no","<div style=""font-size:60px;"">+</div>","null","","","","","","",""
"","419","image-keyboard-response","319","2.0.0","393930","p0uwu2pmdrx","smaller"," llama","how we percieve size","no","stimuli/35-Inongruent.jpg","z","","","","","left","z","true"
"","null","html-keyboard-response","320","2.0.0","394833","p0uwu2pmdrx","smaller"," llama","how we percieve size","no","<p>Correct!</p>","null","","","","","","",""
"","null","html-keyboard-response","321","2.0.0","395834","p0uwu2pmdrx","smaller"," llama","how we percieve size","no","<div style=""font-size:60px;"">+</div>","null","","","","","","",""
"","934","image-keyboard-response","322","2.0.0","396770","p0uwu2pmdrx","smaller"," llama","how we percieve size","no","stimuli/31-Inongruent.jpg","z","","","","","left","z","true"
"","null","html-keyboard-response","323","2.0.0","397672","p0uwu2pmdrx","smaller"," llama","how we percieve size","no","<p>Correct!</p>","null","","","","","","",""
"","null","html-keyboard-response","324","2.0.0","398675","p0uwu2pmdrx","smaller"," llama","how we percieve size","no","<div style=""font-size:60px;"">+</div>","null","","","","","","",""
"","469","image-keyboard-response","325","2.0.0","399145","p0uwu2pmdrx","smaller"," llama","how we percieve size","no","stimuli/27-Inongruent.jpg","z","","","","","left","z","true"
"","null","html-keyboard-response","326","2.0.0","400047","p0uwu2pmdrx","smaller"," llama","how we percieve size","no","<p>Correct!</p>","null","","","","","","",""
"","null","html-keyboard-response","327","2.0.0","401049","p0uwu2pmdrx","smaller"," llama","how we percieve size","no","<div style=""font-size:60px;"">+</div>","null","","","","","","",""
"","379","image-keyboard-response","328","2.0.0","401429","p0uwu2pmdrx","smaller"," llama","how we percieve size","no","stimuli/22-Inongruent.jpg","z","","","","","left","z","true"
"","null","html-keyboard-response","329","2.0.0","402332","p0uwu2pmdrx","smaller"," llama","how we percieve size","no","<p>Correct!</p>","null","","","","","","",""
"","null","html-keyboard-response","330","2.0.0","403335","p0uwu2pmdrx","smaller"," llama","how we percieve size","no","<div style=""font-size:60px;"">+</div>","null","","","","","","",""
"","460","image-keyboard-response","331","2.0.0","403796","p0uwu2pmdrx","smaller"," llama","how we percieve size","no","stimuli/6-Congruent.jpg","m","","","","","right","m","true"
"","null","html-keyboard-response","332","2.0.0","404698","p0uwu2pmdrx","smaller"," llama","how we percieve size","no","<p>Correct!</p>","null","","","","","","",""
"","null","html-keyboard-response","333","2.0.0","405700","p0uwu2pmdrx","smaller"," llama","how we percieve size","no","<div style=""font-size:60px;"">+</div>","null","","","","","","",""
"","359","image-keyboard-response","334","2.0.0","406061","p0uwu2pmdrx","smaller"," llama","how we percieve size","no","stimuli/7-Inongruent.jpg","z","","","","","left","z","true"
"","null","html-keyboard-response","335","2.0.0","406963","p0uwu2pmdrx","smaller"," llama","how we percieve size","no","<p>Correct!</p>","null","","","","","","",""
"","null","html-keyboard-response","336","2.0.0","407965","p0uwu2pmdrx","smaller"," llama","how we percieve size","no","<div style=""font-size:60px;"">+</div>","null","","","","","","",""
"","385","image-keyboard-response","337","2.0.0","408352","p0uwu2pmdrx","smaller"," llama","how we percieve size","no","stimuli/31-Congruent.jpg","m","","","","","right","m","true"
"","null","html-keyboard-response","338","2.0.0","409253","p0uwu2pmdrx","smaller"," llama","how we percieve size","no","<p>Correct!</p>","null","","","","","","",""
"","null","html-keyboard-response","339","2.0.0","410255","p0uwu2pmdrx","smaller"," llama","how we percieve size","no","<div style=""font-size:60px;"">+</div>","null","","","","","","",""
"","399","image-keyboard-response","340","2.0.0","410655","p0uwu2pmdrx","smaller"," llama","how we percieve size","no","stimuli/8-Inongruent.jpg","z","","","","","left","z","true"
"","null","html-keyboard-response","341","2.0.0","411558","p0uwu2pmdrx","smaller"," llama","how we percieve size","no","<p>Correct!</p>","null","","","","","","",""
"","null","html-keyboard-response","342","2.0.0","412561","p0uwu2pmdrx","smaller"," llama","how we percieve size","no","<div style=""font-size:60px;"">+</div>","null","","","","","","",""
"","369","image-keyboard-response","343","2.0.0","412931","p0uwu2pmdrx","smaller"," llama","how we percieve size","no","stimuli/25-Congruent.jpg","m","","","","","right","m","true"
"","null","html-keyboard-response","344","2.0.0","413833","p0uwu2pmdrx","smaller"," llama","how we percieve size","no","<p>Correct!</p>","null","","","","","","",""
"","null","html-keyboard-response","345","2.0.0","414836","p0uwu2pmdrx","smaller"," llama","how we percieve size","no","<div style=""font-size:60px;"">+</div>","null","","","","","","",""
"","402","image-keyboard-response","346","2.0.0","415240","p0uwu2pmdrx","smaller"," llama","how we percieve size","no","stimuli/12-Inongruent.jpg","z","","","","","left","z","true"
"","null","html-keyboard-response","347","2.0.0","416142","p0uwu2pmdrx","smaller"," llama","how we percieve size","no","<p>Correct!</p>","null","","","","","","",""
"","null","html-keyboard-response","348","2.0.0","417145","p0uwu2pmdrx","smaller"," llama","how we percieve size","no","<div style=""font-size:60px;"">+</div>","null","","","","","","",""
"","400","image-keyboard-response","349","2.0.0","417546","p0uwu2pmdrx","smaller"," llama","how we percieve size","no","stimuli/6-Inongruent.jpg","z","","","","","left","z","true"
"","null","html-keyboard-response","350","2.0.0","418448","p0uwu2pmdrx","smaller"," llama","how we percieve size","no","<p>Correct!</p>","null","","","","","","",""
"","null","html-keyboard-response","351","2.0.0","419450","p0uwu2pmdrx","smaller"," llama","how we percieve size","no","<div style=""font-size:60px;"">+</div>","null","","","","","","",""
"","340","image-keyboard-response","352","2.0.0","419792","p0uwu2pmdrx","smaller"," llama","how we percieve size","no","stimuli/23-Inongruent.jpg","z","","","","","left","z","true"
"","null","html-keyboard-response","353","2.0.0","420694","p0uwu2pmdrx","smaller"," llama","how we percieve size","no","<p>Correct!</p>","null","","","","","","",""
"","null","html-keyboard-response","354","2.0.0","421696","p0uwu2pmdrx","smaller"," llama","how we percieve size","no","<div style=""font-size:60px;"">+</div>","null","","","","","","",""
"","388","image-keyboard-response","355","2.0.0","422085","p0uwu2pmdrx","smaller"," llama","how we percieve size","no","stimuli/23-Congruent.jpg","m","","","","","right","m","true"
"","null","html-keyboard-response","356","2.0.0","422987","p0uwu2pmdrx","smaller"," llama","how we percieve size","no","<p>Correct!</p>","null","","","","","","",""
"","null","html-keyboard-response","357","2.0.0","423990","p0uwu2pmdrx","smaller"," llama","how we percieve size","no","<div style=""font-size:60px;"">+</div>","null","","","","","","",""
"","443","image-keyboard-response","358","2.0.0","424434","p0uwu2pmdrx","smaller"," llama","how we percieve size","no","stimuli/13-Inongruent.jpg","z","","","","","left","z","true"
"","null","html-keyboard-response","359","2.0.0","425337","p0uwu2pmdrx","smaller"," llama","how we percieve size","no","<p>Correct!</p>","null","","","","","","",""
"","null","html-keyboard-response","360","2.0.0","426338","p0uwu2pmdrx","smaller"," llama","how we percieve size","no","<div style=""font-size:60px;"">+</div>","null","","","","","","",""
"","477","image-keyboard-response","361","2.0.0","426816","p0uwu2pmdrx","smaller"," llama","how we percieve size","no","stimuli/32-Inongruent.jpg","z","","","","","left","z","true"
"","null","html-keyboard-response","362","2.0.0","427718","p0uwu2pmdrx","smaller"," llama","how we percieve size","no","<p>Correct!</p>","null","","","","","","",""
"","null","html-keyboard-response","363","2.0.0","428721","p0uwu2pmdrx","smaller"," llama","how we percieve size","no","<div style=""font-size:60px;"">+</div>","null","","","","","","",""
"","384","image-keyboard-response","364","2.0.0","429107","p0uwu2pmdrx","smaller"," llama","how we percieve size","no","stimuli/22-Congruent.jpg","m","","","","","right","m","true"
"","null","html-keyboard-response","365","2.0.0","430008","p0uwu2pmdrx","smaller"," llama","how we percieve size","no","<p>Correct!</p>","null","","","","","","",""
"","null","html-keyboard-response","366","2.0.0","431010","p0uwu2pmdrx","smaller"," llama","how we percieve size","no","<div style=""font-size:60px;"">+</div>","null","","","","","","",""
"","459","image-keyboard-response","367","2.0.0","431470","p0uwu2pmdrx","smaller"," llama","how we percieve size","no","stimuli/24-Congruent.jpg","z","","","","","right","m","false"
"","720","html-keyboard-response","368","2.0.0","432191","p0uwu2pmdrx","smaller"," llama","how we percieve size","no","<p>Incorrect.</p><p>Remember to select the <b>smaller</b> image.</p><p>Continuing in 5 seconds...</p>","m","","","","","","",""
"","null","html-keyboard-response","369","2.0.0","433193","p0uwu2pmdrx","smaller"," llama","how we percieve size","no","<div style=""font-size:60px;"">+</div>","null","","","","","","",""
"","453","image-keyboard-response","370","2.0.0","433648","p0uwu2pmdrx","smaller"," llama","how we percieve size","no","stimuli/1-Inongruent.jpg","z","","","","","left","z","true"
"","null","html-keyboard-response","371","2.0.0","434550","p0uwu2pmdrx","smaller"," llama","how we percieve size","no","<p>Correct!</p>","null","","","","","","",""
"","null","html-keyboard-response","372","2.0.0","435553","p0uwu2pmdrx","smaller"," llama","how we percieve size","no","<div style=""font-size:60px;"">+</div>","null","","","","","","",""
"","562","image-keyboard-response","373","2.0.0","436117","p0uwu2pmdrx","smaller"," llama","how we percieve size","no","stimuli/30-Inongruent.jpg","z","","","","","left","z","true"
"","null","html-keyboard-response","374","2.0.0","437018","p0uwu2pmdrx","smaller"," llama","how we percieve size","no","<p>Correct!</p>","null","","","","","","",""
"","null","html-keyboard-response","375","2.0.0","438020","p0uwu2pmdrx","smaller"," llama","how we percieve size","no","<div style=""font-size:60px;"">+</div>","null","","","","","","",""
"","493","image-keyboard-response","376","2.0.0","438514","p0uwu2pmdrx","smaller"," llama","how we percieve size","no","stimuli/20-Congruent.jpg","m","","","","","right","m","true"
"","null","html-keyboard-response","377","2.0.0","439416","p0uwu2pmdrx","smaller"," llama","how we percieve size","no","<p>Correct!</p>","null","","","","","","",""
"","null","html-keyboard-response","378","2.0.0","440418","p0uwu2pmdrx","smaller"," llama","how we percieve size","no","<div style=""font-size:60px;"">+</div>","null","","","","","","",""
"","434","image-keyboard-response","379","2.0.0","440854","p0uwu2pmdrx","smaller"," llama","how we percieve size","no","stimuli/10-Congruent.jpg","m","","","","","right","m","true"
"","null","html-keyboard-response","380","2.0.0","441757","p0uwu2pmdrx","smaller"," llama","how we percieve size","no","<p>Correct!</p>","null","","","","","","",""
"","null","html-keyboard-response","381","2.0.0","442759","p0uwu2pmdrx","smaller"," llama","how we percieve size","no","<div style=""font-size:60px;"">+</div>","null","","","","","","",""
"","721","image-keyboard-response","382","2.0.0","443481","p0uwu2pmdrx","smaller"," llama","how we percieve size","no","stimuli/4-Congruent.jpg","m","","","","","right","m","true"
"","null","html-keyboard-response","383","2.0.0","444383","p0uwu2pmdrx","smaller"," llama","how we percieve size","no","<p>Correct!</p>","null","","","","","","",""
"","null","html-keyboard-response","384","2.0.0","445386","p0uwu2pmdrx","smaller"," llama","how we percieve size","no","<div style=""font-size:60px;"">+</div>","null","","","","","","",""
"","429","image-keyboard-response","385","2.0.0","445816","p0uwu2pmdrx","smaller"," llama","how we percieve size","no","stimuli/29-Congruent.jpg","m","","","","","right","m","true"
"","null","html-keyboard-response","386","2.0.0","446718","p0uwu2pmdrx","smaller"," llama","how we percieve size","no","<p>Correct!</p>","null","","","","","","",""
"","null","html-keyboard-response","387","2.0.0","447720","p0uwu2pmdrx","smaller"," llama","how we percieve size","no","<div style=""font-size:60px;"">+</div>","null","","","","","","",""
"","450","image-keyboard-response","388","2.0.0","448171","p0uwu2pmdrx","smaller"," llama","how we percieve size","no","stimuli/9-Congruent.jpg","m","","","","","right","m","true"
"","null","html-keyboard-response","389","2.0.0","449073","p0uwu2pmdrx","smaller"," llama","how we percieve size","no","<p>Correct!</p>","null","","","","","","",""
"","null","html-keyboard-response","390","2.0.0","450075","p0uwu2pmdrx","smaller"," llama","how we percieve size","no","<div style=""font-size:60px;"">+</div>","null","","","","","","",""
"","438","image-keyboard-response","391","2.0.0","450515","p0uwu2pmdrx","smaller"," llama","how we percieve size","no","stimuli/4-Congruent.jpg","m","","","","","right","m","true"
"","null","html-keyboard-response","392","2.0.0","451417","p0uwu2pmdrx","smaller"," llama","how we percieve size","no","<p>Correct!</p>","null","","","","","","",""
"","null","html-keyboard-response","393","2.0.0","452419","p0uwu2pmdrx","smaller"," llama","how we percieve size","no","<div style=""font-size:60px;"">+</div>","null","","","","","","",""
"","722","image-keyboard-response","394","2.0.0","453142","p0uwu2pmdrx","smaller"," llama","how we percieve size","no","stimuli/18-Inongruent.jpg","z","","","","","left","z","true"
"","null","html-keyboard-response","395","2.0.0","454044","p0uwu2pmdrx","smaller"," llama","how we percieve size","no","<p>Correct!</p>","null","","","","","","",""
"","null","html-keyboard-response","396","2.0.0","455046","p0uwu2pmdrx","smaller"," llama","how we percieve size","no","<div style=""font-size:60px;"">+</div>","null","","","","","","",""
"","460","image-keyboard-response","397","2.0.0","455507","p0uwu2pmdrx","smaller"," llama","how we percieve size","no","stimuli/9-Inongruent.jpg","z","","","","","left","z","true"
"","null","html-keyboard-response","398","2.0.0","456410","p0uwu2pmdrx","smaller"," llama","how we percieve size","no","<p>Correct!</p>","null","","","","","","",""
"","null","html-keyboard-response","399","2.0.0","457411","p0uwu2pmdrx","smaller"," llama","how we percieve size","no","<div style=""font-size:60px;"">+</div>","null","","","","","","",""
"","822","image-keyboard-response","400","2.0.0","458234","p0uwu2pmdrx","smaller"," llama","how we percieve size","no","stimuli/12-Inongruent.jpg","z","","","","","left","z","true"
"","null","html-keyboard-response","401","2.0.0","459136","p0uwu2pmdrx","smaller"," llama","how we percieve size","no","<p>Correct!</p>","null","","","","","","",""
"","null","html-keyboard-response","402","2.0.0","460137","p0uwu2pmdrx","smaller"," llama","how we percieve size","no","<div style=""font-size:60px;"">+</div>","null","","","","","","",""
"","582","image-keyboard-response","403","2.0.0","460721","p0uwu2pmdrx","smaller"," llama","how we percieve size","no","stimuli/30-Congruent.jpg","m","","","","","right","m","true"
"","null","html-keyboard-response","404","2.0.0","461624","p0uwu2pmdrx","smaller"," llama","how we percieve size","no","<p>Correct!</p>","null","","","","","","",""
"","null","html-keyboard-response","405","2.0.0","462627","p0uwu2pmdrx","smaller"," llama","how we percieve size","no","<div style=""font-size:60px;"">+</div>","null","","","","","","",""
"","387","image-keyboard-response","406","2.0.0","463015","p0uwu2pmdrx","smaller"," llama","how we percieve size","no","stimuli/8-Inongruent.jpg","z","","","","","left","z","true"
"","null","html-keyboard-response","407","2.0.0","463918","p0uwu2pmdrx","smaller"," llama","how we percieve size","no","<p>Correct!</p>","null","","","","","","",""
"","null","html-keyboard-response","408","2.0.0","464920","p0uwu2pmdrx","smaller"," llama","how we percieve size","no","<div style=""font-size:60px;"">+</div>","null","","","","","","",""
"","431","image-keyboard-response","409","2.0.0","465353","p0uwu2pmdrx","smaller"," llama","how we percieve size","no","stimuli/9-Congruent.jpg","m","","","","","right","m","true"
"","null","html-keyboard-response","410","2.0.0","466256","p0uwu2pmdrx","smaller"," llama","how we percieve size","no","<p>Correct!</p>","null","","","","","","",""
"","null","html-keyboard-response","411","2.0.0","467259","p0uwu2pmdrx","smaller"," llama","how we percieve size","no","<div style=""font-size:60px;"">+</div>","null","","","","","","",""
"","408","image-keyboard-response","412","2.0.0","467668","p0uwu2pmdrx","smaller"," llama","how we percieve size","no","stimuli/24-Inongruent.jpg","z","","","","","left","z","true"
"","null","html-keyboard-response","413","2.0.0","468569","p0uwu2pmdrx","smaller"," llama","how we percieve size","no","<p>Correct!</p>","null","","","","","","",""
"","null","html-keyboard-response","414","2.0.0","469572","p0uwu2pmdrx","smaller"," llama","how we percieve size","no","<div style=""font-size:60px;"">+</div>","null","","","","","","",""
"","447","image-keyboard-response","415","2.0.0","470020","p0uwu2pmdrx","smaller"," llama","how we percieve size","no","stimuli/28-Congruent.jpg","m","","","","","right","m","true"
"","null","html-keyboard-response","416","2.0.0","470921","p0uwu2pmdrx","smaller"," llama","how we percieve size","no","<p>Correct!</p>","null","","","","","","",""
"","null","html-keyboard-response","417","2.0.0","471922","p0uwu2pmdrx","smaller"," llama","how we percieve size","no","<div style=""font-size:60px;"">+</div>","null","","","","","","",""
"","425","image-keyboard-response","418","2.0.0","472348","p0uwu2pmdrx","smaller"," llama","how we percieve size","no","stimuli/31-Inongruent.jpg","z","","","","","left","z","true"
"","null","html-keyboard-response","419","2.0.0","473249","p0uwu2pmdrx","smaller"," llama","how we percieve size","no","<p>Correct!</p>","null","","","","","","",""
"","null","html-keyboard-response","420","2.0.0","474251","p0uwu2pmdrx","smaller"," llama","how we percieve size","no","<div style=""font-size:60px;"">+</div>","null","","","","","","",""
"","408","image-keyboard-response","421","2.0.0","474661","p0uwu2pmdrx","smaller"," llama","how we percieve size","no","stimuli/32-Congruent.jpg","m","","","","","right","m","true"
"","null","html-keyboard-response","422","2.0.0","475563","p0uwu2pmdrx","smaller"," llama","how we percieve size","no","<p>Correct!</p>","null","","","","","","",""
"","null","html-keyboard-response","423","2.0.0","476565","p0uwu2pmdrx","smaller"," llama","how we percieve size","no","<div style=""font-size:60px;"">+</div>","null","","","","","","",""
"","372","image-keyboard-response","424","2.0.0","476938","p0uwu2pmdrx","smaller"," llama","how we percieve size","no","stimuli/21-Congruent.jpg","m","","","","","right","m","true"
"","null","html-keyboard-response","425","2.0.0","477839","p0uwu2pmdrx","smaller"," llama","how we percieve size","no","<p>Correct!</p>","null","","","","","","",""
"","null","html-keyboard-response","426","2.0.0","478842","p0uwu2pmdrx","smaller"," llama","how we percieve size","no","<div style=""font-size:60px;"">+</div>","null","","","","","","",""
"","374","image-keyboard-response","427","2.0.0","479218","p0uwu2pmdrx","smaller"," llama","how we percieve size","no","stimuli/19-Congruent.jpg","m","","","","","right","m","true"
"","null","html-keyboard-response","428","2.0.0","480119","p0uwu2pmdrx","smaller"," llama","how we percieve size","no","<p>Correct!</p>","null","","","","","","",""
"","null","html-keyboard-response","429","2.0.0","481121","p0uwu2pmdrx","smaller"," llama","how we percieve size","no","<div style=""font-size:60px;"">+</div>","null","","","","","","",""
"","444","image-keyboard-response","430","2.0.0","481566","p0uwu2pmdrx","smaller"," llama","how we percieve size","no","stimuli/16-Inongruent.jpg","z","","","","","left","z","true"
"","null","html-keyboard-response","431","2.0.0","482469","p0uwu2pmdrx","smaller"," llama","how we percieve size","no","<p>Correct!</p>","null","","","","","","",""
"","null","html-keyboard-response","432","2.0.0","483471","p0uwu2pmdrx","smaller"," llama","how we percieve size","no","<div style=""font-size:60px;"">+</div>","null","","","","","","",""
"","469","image-keyboard-response","433","2.0.0","483940","p0uwu2pmdrx","smaller"," llama","how we percieve size","no","stimuli/25-Inongruent.jpg","z","","","","","left","z","true"
"","null","html-keyboard-response","434","2.0.0","484842","p0uwu2pmdrx","smaller"," llama","how we percieve size","no","<p>Correct!</p>","null","","","","","","",""
"","null","html-keyboard-response","435","2.0.0","485844","p0uwu2pmdrx","smaller"," llama","how we percieve size","no","<div style=""font-size:60px;"">+</div>","null","","","","","","",""
"","492","image-keyboard-response","436","2.0.0","486338","p0uwu2pmdrx","smaller"," llama","how we percieve size","no","stimuli/34-Inongruent.jpg","z","","","","","left","z","true"
"","null","html-keyboard-response","437","2.0.0","487240","p0uwu2pmdrx","smaller"," llama","how we percieve size","no","<p>Correct!</p>","null","","","","","","",""
"","2540","html-keyboard-response","438","2.0.0","489781","p0uwu2pmdrx","smaller"," llama","how we percieve size","no","<p>You have completed the experiment!</p>
              <p>Your accuracy was: 97.91666666666666%.</p>
              <p>Thank you for participating.</p>
              <p>Press any key to continue.</p>"," ","","","","","","",""
"","7101","survey-text","439","2.0.0","496890","p0uwu2pmdrx","smaller"," llama","how we percieve size","no","","{""participant_thoughts"":""how we percieve size""}","","","","","","",""
"","2254","survey-text","440","2.0.0","499147","p0uwu2pmdrx","smaller"," llama","how we percieve size","no","","{""participant_difficulties"":""no""}","","","","","","",""
"","633","html-keyboard-response","441","2.0.0","499782","p0uwu2pmdrx","smaller"," llama","how we percieve size","no","<p>The purpose of this experiment is to determine if the real world size of a familiar object is automatically processed when viewed.</p><p>Thank you for participating!</p>","Enter","","","","","","",""
