"success","rt","trial_type","trial_index","plugin_version","time_elapsed","random_id","condition","participant","participant_thoughts","participant_difficulties","stimulus","response","timeout","failed_images","failed_audio","failed_video","correct_response","correct_response_key","correct"
"true","1911","fullscreen","0","null","2916","p159pw1yfrp","bigger","2341","size comparision recognition timed","NA","","","","","","","","",""
"","2334","html-keyboard-response","1","2.0.0","5252","p159pw1yfrp","bigger","2341","size comparision recognition timed","NA","Welcome to the Size Stroop experiment. Press any key to begin."," ","","","","","","",""
"","null","html-keyboard-response","2","2.0.0","6254","p159pw1yfrp","bigger","2341","size comparision recognition timed","NA","This trial will be in fullscreen mode.","null","","","","","","",""
"","4187","survey-text","3","2.0.0","10444","p159pw1yfrp","bigger","2341","size comparision recognition timed","NA","","{""participant_id"":""2341""}","","","","","","",""
"","18956","html-keyboard-response","4","2.0.0","29401","p159pw1yfrp","bigger","2341","size comparision recognition timed","NA","<p>In this experiment, two images will appear on the screen. Identify the <strong>larger</strong> images.</p>
              <p>If the image on the left is larger, press ""z"". If the image on the right is larger, press ""m"".</p>
              <p>Press any key to begin.</p>"," ","","","","","","",""
"true","","preload","5","2.0.0","29903","p159pw1yfrp","bigger","2341","size comparision recognition timed","NA","","","false","[]","[]","[]","","",""
"","null","html-keyboard-response","6","2.0.0","30905","p159pw1yfrp","bigger","2341","size comparision recognition timed","NA","<div style=""font-size:60px;"">+</div>","null","","","","","","",""
"","2009","image-keyboard-response","7","2.0.0","32917","p159pw1yfrp","bigger","2341","size comparision recognition timed","NA","stimuli/29-Inongruent.jpg","m","","","","","right","m","true"
"","null","html-keyboard-response","8","2.0.0","33820","p159pw1yfrp","bigger","2341","size comparision recognition timed","NA","<p>Correct!</p>","null","","","","","","",""
"","null","html-keyboard-response","9","2.0.0","34823","p159pw1yfrp","bigger","2341","size comparision recognition timed","NA","<div style=""font-size:60px;"">+</div>","null","","","","","","",""
"","1693","image-keyboard-response","10","2.0.0","36517","p159pw1yfrp","bigger","2341","size comparision recognition timed","NA","stimuli/17-Congruent.jpg","z","","","","","left","z","true"
"","null","html-keyboard-response","11","2.0.0","37419","p159pw1yfrp","bigger","2341","size comparision recognition timed","NA","<p>Correct!</p>","null","","","","","","",""
"","null","html-keyboard-response","12","2.0.0","38422","p159pw1yfrp","bigger","2341","size comparision recognition timed","NA","<div style=""font-size:60px;"">+</div>","null","","","","","","",""
"","844","image-keyboard-response","13","2.0.0","39268","p159pw1yfrp","bigger","2341","size comparision recognition timed","NA","stimuli/35-Inongruent.jpg","m","","","","","right","m","true"
"","null","html-keyboard-response","14","2.0.0","40169","p159pw1yfrp","bigger","2341","size comparision recognition timed","NA","<p>Correct!</p>","null","","","","","","",""
"","null","html-keyboard-response","15","2.0.0","41172","p159pw1yfrp","bigger","2341","size comparision recognition timed","NA","<div style=""font-size:60px;"">+</div>","null","","","","","","",""
"","984","image-keyboard-response","16","2.0.0","42157","p159pw1yfrp","bigger","2341","size comparision recognition timed","NA","stimuli/27-Congruent.jpg","z","","","","","left","z","true"
"","null","html-keyboard-response","17","2.0.0","43059","p159pw1yfrp","bigger","2341","size comparision recognition timed","NA","<p>Correct!</p>","null","","","","","","",""
"","null","html-keyboard-response","18","2.0.0","44060","p159pw1yfrp","bigger","2341","size comparision recognition timed","NA","<div style=""font-size:60px;"">+</div>","null","","","","","","",""
"","1386","image-keyboard-response","19","2.0.0","45447","p159pw1yfrp","bigger","2341","size comparision recognition timed","NA","stimuli/1-Congruent.jpg","z","","","","","left","z","true"
"","null","html-keyboard-response","20","2.0.0","46349","p159pw1yfrp","bigger","2341","size comparision recognition timed","NA","<p>Correct!</p>","null","","","","","","",""
"","null","html-keyboard-response","21","2.0.0","47351","p159pw1yfrp","bigger","2341","size comparision recognition timed","NA","<div style=""font-size:60px;"">+</div>","null","","","","","","",""
"","1223","image-keyboard-response","22","2.0.0","48575","p159pw1yfrp","bigger","2341","size comparision recognition timed","NA","stimuli/1-Congruent.jpg","z","","","","","left","z","true"
"","null","html-keyboard-response","23","2.0.0","49476","p159pw1yfrp","bigger","2341","size comparision recognition timed","NA","<p>Correct!</p>","null","","","","","","",""
"","null","html-keyboard-response","24","2.0.0","50478","p159pw1yfrp","bigger","2341","size comparision recognition timed","NA","<div style=""font-size:60px;"">+</div>","null","","","","","","",""
"","899","image-keyboard-response","25","2.0.0","51378","p159pw1yfrp","bigger","2341","size comparision recognition timed","NA","stimuli/13-Inongruent.jpg","m","","","","","right","m","true"
"","null","html-keyboard-response","26","2.0.0","52280","p159pw1yfrp","bigger","2341","size comparision recognition timed","NA","<p>Correct!</p>","null","","","","","","",""
"","null","html-keyboard-response","27","2.0.0","53281","p159pw1yfrp","bigger","2341","size comparision recognition timed","NA","<div style=""font-size:60px;"">+</div>","null","","","","","","",""
"","1276","image-keyboard-response","28","2.0.0","54558","p159pw1yfrp","bigger","2341","size comparision recognition timed","NA","stimuli/31-Inongruent.jpg","m","","","","","right","m","true"
"","null","html-keyboard-response","29","2.0.0","55459","p159pw1yfrp","bigger","2341","size comparision recognition timed","NA","<p>Correct!</p>","null","","","","","","",""
"","null","html-keyboard-response","30","2.0.0","56462","p159pw1yfrp","bigger","2341","size comparision recognition timed","NA","<div style=""font-size:60px;"">+</div>","null","","","","","","",""
"","886","image-keyboard-response","31","2.0.0","57349","p159pw1yfrp","bigger","2341","size comparision recognition timed","NA","stimuli/8-Congruent.jpg","z","","","","","left","z","true"
"","null","html-keyboard-response","32","2.0.0","58251","p159pw1yfrp","bigger","2341","size comparision recognition timed","NA","<p>Correct!</p>","null","","","","","","",""
"","null","html-keyboard-response","33","2.0.0","59253","p159pw1yfrp","bigger","2341","size comparision recognition timed","NA","<div style=""font-size:60px;"">+</div>","null","","","","","","",""
"","916","image-keyboard-response","34","2.0.0","60171","p159pw1yfrp","bigger","2341","size comparision recognition timed","NA","stimuli/32-Inongruent.jpg","m","","","","","right","m","true"
"","null","html-keyboard-response","35","2.0.0","61073","p159pw1yfrp","bigger","2341","size comparision recognition timed","NA","<p>Correct!</p>","null","","","","","","",""
"","null","html-keyboard-response","36","2.0.0","62076","p159pw1yfrp","bigger","2341","size comparision recognition timed","NA","<div style=""font-size:60px;"">+</div>","null","","","","","","",""
"","691","image-keyboard-response","37","2.0.0","62768","p159pw1yfrp","bigger","2341","size comparision recognition timed","NA","stimuli/16-Inongruent.jpg","m","","","","","right","m","true"
"","null","html-keyboard-response","38","2.0.0","63669","p159pw1yfrp","bigger","2341","size comparision recognition timed","NA","<p>Correct!</p>","null","","","","","","",""
"","null","html-keyboard-response","39","2.0.0","64670","p159pw1yfrp","bigger","2341","size comparision recognition timed","NA","<div style=""font-size:60px;"">+</div>","null","","","","","","",""
"","1271","image-keyboard-response","40","2.0.0","65942","p159pw1yfrp","bigger","2341","size comparision recognition timed","NA","stimuli/30-Inongruent.jpg","m","","","","","right","m","true"
"","null","html-keyboard-response","41","2.0.0","66845","p159pw1yfrp","bigger","2341","size comparision recognition timed","NA","<p>Correct!</p>","null","","","","","","",""
"","null","html-keyboard-response","42","2.0.0","67847","p159pw1yfrp","bigger","2341","size comparision recognition timed","NA","<div style=""font-size:60px;"">+</div>","null","","","","","","",""
"","606","image-keyboard-response","43","2.0.0","68454","p159pw1yfrp","bigger","2341","size comparision recognition timed","NA","stimuli/19-Inongruent.jpg","m","","","","","right","m","true"
"","null","html-keyboard-response","44","2.0.0","69356","p159pw1yfrp","bigger","2341","size comparision recognition timed","NA","<p>Correct!</p>","null","","","","","","",""
"","null","html-keyboard-response","45","2.0.0","70358","p159pw1yfrp","bigger","2341","size comparision recognition timed","NA","<div style=""font-size:60px;"">+</div>","null","","","","","","",""
"","730","image-keyboard-response","46","2.0.0","71089","p159pw1yfrp","bigger","2341","size comparision recognition timed","NA","stimuli/27-Inongruent.jpg","m","","","","","right","m","true"
"","null","html-keyboard-response","47","2.0.0","71992","p159pw1yfrp","bigger","2341","size comparision recognition timed","NA","<p>Correct!</p>","null","","","","","","",""
"","null","html-keyboard-response","48","2.0.0","72994","p159pw1yfrp","bigger","2341","size comparision recognition timed","NA","<div style=""font-size:60px;"">+</div>","null","","","","","","",""
"","666","image-keyboard-response","49","2.0.0","73661","p159pw1yfrp","bigger","2341","size comparision recognition timed","NA","stimuli/5-Congruent.jpg","z","","","","","left","z","true"
"","null","html-keyboard-response","50","2.0.0","74562","p159pw1yfrp","bigger","2341","size comparision recognition timed","NA","<p>Correct!</p>","null","","","","","","",""
"","null","html-keyboard-response","51","2.0.0","75564","p159pw1yfrp","bigger","2341","size comparision recognition timed","NA","<div style=""font-size:60px;"">+</div>","null","","","","","","",""
"","833","image-keyboard-response","52","2.0.0","76398","p159pw1yfrp","bigger","2341","size comparision recognition timed","NA","stimuli/20-Congruent.jpg","z","","","","","left","z","true"
"","null","html-keyboard-response","53","2.0.0","77300","p159pw1yfrp","bigger","2341","size comparision recognition timed","NA","<p>Correct!</p>","null","","","","","","",""
"","null","html-keyboard-response","54","2.0.0","78302","p159pw1yfrp","bigger","2341","size comparision recognition timed","NA","<div style=""font-size:60px;"">+</div>","null","","","","","","",""
"","949","image-keyboard-response","55","2.0.0","79253","p159pw1yfrp","bigger","2341","size comparision recognition timed","NA","stimuli/14-Inongruent.jpg","m","","","","","right","m","true"
"","null","html-keyboard-response","56","2.0.0","80155","p159pw1yfrp","bigger","2341","size comparision recognition timed","NA","<p>Correct!</p>","null","","","","","","",""
"","null","html-keyboard-response","57","2.0.0","81157","p159pw1yfrp","bigger","2341","size comparision recognition timed","NA","<div style=""font-size:60px;"">+</div>","null","","","","","","",""
"","780","image-keyboard-response","58","2.0.0","81938","p159pw1yfrp","bigger","2341","size comparision recognition timed","NA","stimuli/6-Inongruent.jpg","m","","","","","right","m","true"
"","null","html-keyboard-response","59","2.0.0","82840","p159pw1yfrp","bigger","2341","size comparision recognition timed","NA","<p>Correct!</p>","null","","","","","","",""
"","null","html-keyboard-response","60","2.0.0","83843","p159pw1yfrp","bigger","2341","size comparision recognition timed","NA","<div style=""font-size:60px;"">+</div>","null","","","","","","",""
"","893","image-keyboard-response","61","2.0.0","84737","p159pw1yfrp","bigger","2341","size comparision recognition timed","NA","stimuli/35-Congruent.jpg","z","","","","","left","z","true"
"","null","html-keyboard-response","62","2.0.0","85639","p159pw1yfrp","bigger","2341","size comparision recognition timed","NA","<p>Correct!</p>","null","","","","","","",""
"","null","html-keyboard-response","63","2.0.0","86641","p159pw1yfrp","bigger","2341","size comparision recognition timed","NA","<div style=""font-size:60px;"">+</div>","null","","","","","","",""
"","774","image-keyboard-response","64","2.0.0","87416","p159pw1yfrp","bigger","2341","size comparision recognition timed","NA","stimuli/23-Inongruent.jpg","m","","","","","right","m","true"
"","null","html-keyboard-response","65","2.0.0","88317","p159pw1yfrp","bigger","2341","size comparision recognition timed","NA","<p>Correct!</p>","null","","","","","","",""
"","null","html-keyboard-response","66","2.0.0","89320","p159pw1yfrp","bigger","2341","size comparision recognition timed","NA","<div style=""font-size:60px;"">+</div>","null","","","","","","",""
"","923","image-keyboard-response","67","2.0.0","90244","p159pw1yfrp","bigger","2341","size comparision recognition timed","NA","stimuli/19-Congruent.jpg","z","","","","","left","z","true"
"","null","html-keyboard-response","68","2.0.0","91146","p159pw1yfrp","bigger","2341","size comparision recognition timed","NA","<p>Correct!</p>","null","","","","","","",""
"","null","html-keyboard-response","69","2.0.0","92147","p159pw1yfrp","bigger","2341","size comparision recognition timed","NA","<div style=""font-size:60px;"">+</div>","null","","","","","","",""
"","1992","image-keyboard-response","70","2.0.0","94140","p159pw1yfrp","bigger","2341","size comparision recognition timed","NA","stimuli/7-Inongruent.jpg","m","","","","","right","m","true"
"","null","html-keyboard-response","71","2.0.0","95042","p159pw1yfrp","bigger","2341","size comparision recognition timed","NA","<p>Correct!</p>","null","","","","","","",""
"","null","html-keyboard-response","72","2.0.0","96044","p159pw1yfrp","bigger","2341","size comparision recognition timed","NA","<div style=""font-size:60px;"">+</div>","null","","","","","","",""
"","969","image-keyboard-response","73","2.0.0","97013","p159pw1yfrp","bigger","2341","size comparision recognition timed","NA","stimuli/8-Inongruent.jpg","m","","","","","right","m","true"
"","null","html-keyboard-response","74","2.0.0","97916","p159pw1yfrp","bigger","2341","size comparision recognition timed","NA","<p>Correct!</p>","null","","","","","","",""
"","null","html-keyboard-response","75","2.0.0","98919","p159pw1yfrp","bigger","2341","size comparision recognition timed","NA","<div style=""font-size:60px;"">+</div>","null","","","","","","",""
"","784","image-keyboard-response","76","2.0.0","99704","p159pw1yfrp","bigger","2341","size comparision recognition timed","NA","stimuli/8-Inongruent.jpg","m","","","","","right","m","true"
"","null","html-keyboard-response","77","2.0.0","100606","p159pw1yfrp","bigger","2341","size comparision recognition timed","NA","<p>Correct!</p>","null","","","","","","",""
"","null","html-keyboard-response","78","2.0.0","101607","p159pw1yfrp","bigger","2341","size comparision recognition timed","NA","<div style=""font-size:60px;"">+</div>","null","","","","","","",""
"","851","image-keyboard-response","79","2.0.0","102459","p159pw1yfrp","bigger","2341","size comparision recognition timed","NA","stimuli/6-Congruent.jpg","z","","","","","left","z","true"
"","null","html-keyboard-response","80","2.0.0","103360","p159pw1yfrp","bigger","2341","size comparision recognition timed","NA","<p>Correct!</p>","null","","","","","","",""
"","null","html-keyboard-response","81","2.0.0","104363","p159pw1yfrp","bigger","2341","size comparision recognition timed","NA","<div style=""font-size:60px;"">+</div>","null","","","","","","",""
"","696","image-keyboard-response","82","2.0.0","105060","p159pw1yfrp","bigger","2341","size comparision recognition timed","NA","stimuli/15-Congruent.jpg","z","","","","","left","z","true"
"","null","html-keyboard-response","83","2.0.0","105962","p159pw1yfrp","bigger","2341","size comparision recognition timed","NA","<p>Correct!</p>","null","","","","","","",""
"","null","html-keyboard-response","84","2.0.0","106964","p159pw1yfrp","bigger","2341","size comparision recognition timed","NA","<div style=""font-size:60px;"">+</div>","null","","","","","","",""
"","826","image-keyboard-response","85","2.0.0","107791","p159pw1yfrp","bigger","2341","size comparision recognition timed","NA","stimuli/14-Congruent.jpg","z","","","","","left","z","true"
"","null","html-keyboard-response","86","2.0.0","108693","p159pw1yfrp","bigger","2341","size comparision recognition timed","NA","<p>Correct!</p>","null","","","","","","",""
"","null","html-keyboard-response","87","2.0.0","109695","p159pw1yfrp","bigger","2341","size comparision recognition timed","NA","<div style=""font-size:60px;"">+</div>","null","","","","","","",""
"","876","image-keyboard-response","88","2.0.0","110572","p159pw1yfrp","bigger","2341","size comparision recognition timed","NA","stimuli/2-Congruent.jpg","z","","","","","left","z","true"
"","null","html-keyboard-response","89","2.0.0","111474","p159pw1yfrp","bigger","2341","size comparision recognition timed","NA","<p>Correct!</p>","null","","","","","","",""
"","null","html-keyboard-response","90","2.0.0","112476","p159pw1yfrp","bigger","2341","size comparision recognition timed","NA","<div style=""font-size:60px;"">+</div>","null","","","","","","",""
"","620","image-keyboard-response","91","2.0.0","113097","p159pw1yfrp","bigger","2341","size comparision recognition timed","NA","stimuli/24-Congruent.jpg","z","","","","","left","z","true"
"","null","html-keyboard-response","92","2.0.0","113998","p159pw1yfrp","bigger","2341","size comparision recognition timed","NA","<p>Correct!</p>","null","","","","","","",""
"","null","html-keyboard-response","93","2.0.0","115000","p159pw1yfrp","bigger","2341","size comparision recognition timed","NA","<div style=""font-size:60px;"">+</div>","null","","","","","","",""
"","2209","image-keyboard-response","94","2.0.0","117210","p159pw1yfrp","bigger","2341","size comparision recognition timed","NA","stimuli/1-Inongruent.jpg","m","","","","","right","m","true"
"","null","html-keyboard-response","95","2.0.0","118112","p159pw1yfrp","bigger","2341","size comparision recognition timed","NA","<p>Correct!</p>","null","","","","","","",""
"","null","html-keyboard-response","96","2.0.0","119115","p159pw1yfrp","bigger","2341","size comparision recognition timed","NA","<div style=""font-size:60px;"">+</div>","null","","","","","","",""
"","677","image-keyboard-response","97","2.0.0","119792","p159pw1yfrp","bigger","2341","size comparision recognition timed","NA","stimuli/5-Inongruent.jpg","m","","","","","right","m","true"
"","null","html-keyboard-response","98","2.0.0","120694","p159pw1yfrp","bigger","2341","size comparision recognition timed","NA","<p>Correct!</p>","null","","","","","","",""
"","null","html-keyboard-response","99","2.0.0","121696","p159pw1yfrp","bigger","2341","size comparision recognition timed","NA","<div style=""font-size:60px;"">+</div>","null","","","","","","",""
"","697","image-keyboard-response","100","2.0.0","122393","p159pw1yfrp","bigger","2341","size comparision recognition timed","NA","stimuli/36-Congruent.jpg","z","","","","","left","z","true"
"","null","html-keyboard-response","101","2.0.0","123296","p159pw1yfrp","bigger","2341","size comparision recognition timed","NA","<p>Correct!</p>","null","","","","","","",""
"","null","html-keyboard-response","102","2.0.0","124298","p159pw1yfrp","bigger","2341","size comparision recognition timed","NA","<div style=""font-size:60px;"">+</div>","null","","","","","","",""
"","933","image-keyboard-response","103","2.0.0","125232","p159pw1yfrp","bigger","2341","size comparision recognition timed","NA","stimuli/25-Inongruent.jpg","m","","","","","right","m","true"
"","null","html-keyboard-response","104","2.0.0","126135","p159pw1yfrp","bigger","2341","size comparision recognition timed","NA","<p>Correct!</p>","null","","","","","","",""
"","null","html-keyboard-response","105","2.0.0","127136","p159pw1yfrp","bigger","2341","size comparision recognition timed","NA","<div style=""font-size:60px;"">+</div>","null","","","","","","",""
"","841","image-keyboard-response","106","2.0.0","127978","p159pw1yfrp","bigger","2341","size comparision recognition timed","NA","stimuli/22-Congruent.jpg","z","","","","","left","z","true"
"","null","html-keyboard-response","107","2.0.0","128879","p159pw1yfrp","bigger","2341","size comparision recognition timed","NA","<p>Correct!</p>","null","","","","","","",""
"","null","html-keyboard-response","108","2.0.0","129882","p159pw1yfrp","bigger","2341","size comparision recognition timed","NA","<div style=""font-size:60px;"">+</div>","null","","","","","","",""
"","807","image-keyboard-response","109","2.0.0","130690","p159pw1yfrp","bigger","2341","size comparision recognition timed","NA","stimuli/20-Inongruent.jpg","m","","","","","right","m","true"
"","null","html-keyboard-response","110","2.0.0","131592","p159pw1yfrp","bigger","2341","size comparision recognition timed","NA","<p>Correct!</p>","null","","","","","","",""
"","null","html-keyboard-response","111","2.0.0","132594","p159pw1yfrp","bigger","2341","size comparision recognition timed","NA","<div style=""font-size:60px;"">+</div>","null","","","","","","",""
"","1163","image-keyboard-response","112","2.0.0","133759","p159pw1yfrp","bigger","2341","size comparision recognition timed","NA","stimuli/2-Inongruent.jpg","m","","","","","right","m","true"
"","null","html-keyboard-response","113","2.0.0","134661","p159pw1yfrp","bigger","2341","size comparision recognition timed","NA","<p>Correct!</p>","null","","","","","","",""
"","null","html-keyboard-response","114","2.0.0","135662","p159pw1yfrp","bigger","2341","size comparision recognition timed","NA","<div style=""font-size:60px;"">+</div>","null","","","","","","",""
"","902","image-keyboard-response","115","2.0.0","136565","p159pw1yfrp","bigger","2341","size comparision recognition timed","NA","stimuli/29-Congruent.jpg","z","","","","","left","z","true"
"","null","html-keyboard-response","116","2.0.0","137466","p159pw1yfrp","bigger","2341","size comparision recognition timed","NA","<p>Correct!</p>","null","","","","","","",""
"","null","html-keyboard-response","117","2.0.0","138469","p159pw1yfrp","bigger","2341","size comparision recognition timed","NA","<div style=""font-size:60px;"">+</div>","null","","","","","","",""
"","826","image-keyboard-response","118","2.0.0","139296","p159pw1yfrp","bigger","2341","size comparision recognition timed","NA","stimuli/18-Inongruent.jpg","m","","","","","right","m","true"
"","null","html-keyboard-response","119","2.0.0","140198","p159pw1yfrp","bigger","2341","size comparision recognition timed","NA","<p>Correct!</p>","null","","","","","","",""
"","null","html-keyboard-response","120","2.0.0","141201","p159pw1yfrp","bigger","2341","size comparision recognition timed","NA","<div style=""font-size:60px;"">+</div>","null","","","","","","",""
"","989","image-keyboard-response","121","2.0.0","142190","p159pw1yfrp","bigger","2341","size comparision recognition timed","NA","stimuli/21-Congruent.jpg","z","","","","","left","z","true"
"","null","html-keyboard-response","122","2.0.0","143093","p159pw1yfrp","bigger","2341","size comparision recognition timed","NA","<p>Correct!</p>","null","","","","","","",""
"","null","html-keyboard-response","123","2.0.0","144096","p159pw1yfrp","bigger","2341","size comparision recognition timed","NA","<div style=""font-size:60px;"">+</div>","null","","","","","","",""
"","704","image-keyboard-response","124","2.0.0","144801","p159pw1yfrp","bigger","2341","size comparision recognition timed","NA","stimuli/33-Congruent.jpg","z","","","","","left","z","true"
"","null","html-keyboard-response","125","2.0.0","145702","p159pw1yfrp","bigger","2341","size comparision recognition timed","NA","<p>Correct!</p>","null","","","","","","",""
"","null","html-keyboard-response","126","2.0.0","146705","p159pw1yfrp","bigger","2341","size comparision recognition timed","NA","<div style=""font-size:60px;"">+</div>","null","","","","","","",""
"","1279","image-keyboard-response","127","2.0.0","147985","p159pw1yfrp","bigger","2341","size comparision recognition timed","NA","stimuli/10-Inongruent.jpg","m","","","","","right","m","true"
"","null","html-keyboard-response","128","2.0.0","148887","p159pw1yfrp","bigger","2341","size comparision recognition timed","NA","<p>Correct!</p>","null","","","","","","",""
"","null","html-keyboard-response","129","2.0.0","149889","p159pw1yfrp","bigger","2341","size comparision recognition timed","NA","<div style=""font-size:60px;"">+</div>","null","","","","","","",""
"","755","image-keyboard-response","130","2.0.0","150644","p159pw1yfrp","bigger","2341","size comparision recognition timed","NA","stimuli/30-Congruent.jpg","z","","","","","left","z","true"
"","null","html-keyboard-response","131","2.0.0","151546","p159pw1yfrp","bigger","2341","size comparision recognition timed","NA","<p>Correct!</p>","null","","","","","","",""
"","null","html-keyboard-response","132","2.0.0","152548","p159pw1yfrp","bigger","2341","size comparision recognition timed","NA","<div style=""font-size:60px;"">+</div>","null","","","","","","",""
"","720","image-keyboard-response","133","2.0.0","153269","p159pw1yfrp","bigger","2341","size comparision recognition timed","NA","stimuli/4-Inongruent.jpg","m","","","","","right","m","true"
"","null","html-keyboard-response","134","2.0.0","154170","p159pw1yfrp","bigger","2341","size comparision recognition timed","NA","<p>Correct!</p>","null","","","","","","",""
"","null","html-keyboard-response","135","2.0.0","155173","p159pw1yfrp","bigger","2341","size comparision recognition timed","NA","<div style=""font-size:60px;"">+</div>","null","","","","","","",""
"","671","image-keyboard-response","136","2.0.0","155845","p159pw1yfrp","bigger","2341","size comparision recognition timed","NA","stimuli/4-Congruent.jpg","z","","","","","left","z","true"
"","null","html-keyboard-response","137","2.0.0","156747","p159pw1yfrp","bigger","2341","size comparision recognition timed","NA","<p>Correct!</p>","null","","","","","","",""
"","null","html-keyboard-response","138","2.0.0","157749","p159pw1yfrp","bigger","2341","size comparision recognition timed","NA","<div style=""font-size:60px;"">+</div>","null","","","","","","",""
"","683","image-keyboard-response","139","2.0.0","158434","p159pw1yfrp","bigger","2341","size comparision recognition timed","NA","stimuli/7-Congruent.jpg","z","","","","","left","z","true"
"","null","html-keyboard-response","140","2.0.0","159336","p159pw1yfrp","bigger","2341","size comparision recognition timed","NA","<p>Correct!</p>","null","","","","","","",""
"","null","html-keyboard-response","141","2.0.0","160339","p159pw1yfrp","bigger","2341","size comparision recognition timed","NA","<div style=""font-size:60px;"">+</div>","null","","","","","","",""
"","1003","image-keyboard-response","142","2.0.0","161342","p159pw1yfrp","bigger","2341","size comparision recognition timed","NA","stimuli/15-Inongruent.jpg","m","","","","","right","m","true"
"","null","html-keyboard-response","143","2.0.0","162243","p159pw1yfrp","bigger","2341","size comparision recognition timed","NA","<p>Correct!</p>","null","","","","","","",""
"","null","html-keyboard-response","144","2.0.0","163246","p159pw1yfrp","bigger","2341","size comparision recognition timed","NA","<div style=""font-size:60px;"">+</div>","null","","","","","","",""
"","977","image-keyboard-response","145","2.0.0","164224","p159pw1yfrp","bigger","2341","size comparision recognition timed","NA","stimuli/2-Inongruent.jpg","m","","","","","right","m","true"
"","null","html-keyboard-response","146","2.0.0","165126","p159pw1yfrp","bigger","2341","size comparision recognition timed","NA","<p>Correct!</p>","null","","","","","","",""
"","null","html-keyboard-response","147","2.0.0","166128","p159pw1yfrp","bigger","2341","size comparision recognition timed","NA","<div style=""font-size:60px;"">+</div>","null","","","","","","",""
"","634","image-keyboard-response","148","2.0.0","166762","p159pw1yfrp","bigger","2341","size comparision recognition timed","NA","stimuli/17-Inongruent.jpg","m","","","","","right","m","true"
"","null","html-keyboard-response","149","2.0.0","167664","p159pw1yfrp","bigger","2341","size comparision recognition timed","NA","<p>Correct!</p>","null","","","","","","",""
"","null","html-keyboard-response","150","2.0.0","168666","p159pw1yfrp","bigger","2341","size comparision recognition timed","NA","<div style=""font-size:60px;"">+</div>","null","","","","","","",""
"","722","image-keyboard-response","151","2.0.0","169390","p159pw1yfrp","bigger","2341","size comparision recognition timed","NA","stimuli/11-Inongruent.jpg","m","","","","","right","m","true"
"","null","html-keyboard-response","152","2.0.0","170291","p159pw1yfrp","bigger","2341","size comparision recognition timed","NA","<p>Correct!</p>","null","","","","","","",""
"","null","html-keyboard-response","153","2.0.0","171292","p159pw1yfrp","bigger","2341","size comparision recognition timed","NA","<div style=""font-size:60px;"">+</div>","null","","","","","","",""
"","766","image-keyboard-response","154","2.0.0","172058","p159pw1yfrp","bigger","2341","size comparision recognition timed","NA","stimuli/8-Congruent.jpg","z","","","","","left","z","true"
"","null","html-keyboard-response","155","2.0.0","172959","p159pw1yfrp","bigger","2341","size comparision recognition timed","NA","<p>Correct!</p>","null","","","","","","",""
"","null","html-keyboard-response","156","2.0.0","173960","p159pw1yfrp","bigger","2341","size comparision recognition timed","NA","<div style=""font-size:60px;"">+</div>","null","","","","","","",""
"","776","image-keyboard-response","157","2.0.0","174737","p159pw1yfrp","bigger","2341","size comparision recognition timed","NA","stimuli/28-Congruent.jpg","z","","","","","left","z","true"
"","null","html-keyboard-response","158","2.0.0","175639","p159pw1yfrp","bigger","2341","size comparision recognition timed","NA","<p>Correct!</p>","null","","","","","","",""
"","null","html-keyboard-response","159","2.0.0","176641","p159pw1yfrp","bigger","2341","size comparision recognition timed","NA","<div style=""font-size:60px;"">+</div>","null","","","","","","",""
"","953","image-keyboard-response","160","2.0.0","177595","p159pw1yfrp","bigger","2341","size comparision recognition timed","NA","stimuli/34-Inongruent.jpg","m","","","","","right","m","true"
"","null","html-keyboard-response","161","2.0.0","178497","p159pw1yfrp","bigger","2341","size comparision recognition timed","NA","<p>Correct!</p>","null","","","","","","",""
"","null","html-keyboard-response","162","2.0.0","179498","p159pw1yfrp","bigger","2341","size comparision recognition timed","NA","<div style=""font-size:60px;"">+</div>","null","","","","","","",""
"","612","image-keyboard-response","163","2.0.0","180111","p159pw1yfrp","bigger","2341","size comparision recognition timed","NA","stimuli/7-Congruent.jpg","z","","","","","left","z","true"
"","null","html-keyboard-response","164","2.0.0","181013","p159pw1yfrp","bigger","2341","size comparision recognition timed","NA","<p>Correct!</p>","null","","","","","","",""
"","null","html-keyboard-response","165","2.0.0","182015","p159pw1yfrp","bigger","2341","size comparision recognition timed","NA","<div style=""font-size:60px;"">+</div>","null","","","","","","",""
"","947","image-keyboard-response","166","2.0.0","182963","p159pw1yfrp","bigger","2341","size comparision recognition timed","NA","stimuli/24-Inongruent.jpg","m","","","","","right","m","true"
"","null","html-keyboard-response","167","2.0.0","183864","p159pw1yfrp","bigger","2341","size comparision recognition timed","NA","<p>Correct!</p>","null","","","","","","",""
"","null","html-keyboard-response","168","2.0.0","184865","p159pw1yfrp","bigger","2341","size comparision recognition timed","NA","<div style=""font-size:60px;"">+</div>","null","","","","","","",""
"","797","image-keyboard-response","169","2.0.0","185664","p159pw1yfrp","bigger","2341","size comparision recognition timed","NA","stimuli/22-Congruent.jpg","z","","","","","left","z","true"
"","null","html-keyboard-response","170","2.0.0","186566","p159pw1yfrp","bigger","2341","size comparision recognition timed","NA","<p>Correct!</p>","null","","","","","","",""
"","null","html-keyboard-response","171","2.0.0","187568","p159pw1yfrp","bigger","2341","size comparision recognition timed","NA","<div style=""font-size:60px;"">+</div>","null","","","","","","",""
"","647","image-keyboard-response","172","2.0.0","188216","p159pw1yfrp","bigger","2341","size comparision recognition timed","NA","stimuli/31-Congruent.jpg","z","","","","","left","z","true"
"","null","html-keyboard-response","173","2.0.0","189118","p159pw1yfrp","bigger","2341","size comparision recognition timed","NA","<p>Correct!</p>","null","","","","","","",""
"","null","html-keyboard-response","174","2.0.0","190120","p159pw1yfrp","bigger","2341","size comparision recognition timed","NA","<div style=""font-size:60px;"">+</div>","null","","","","","","",""
"","1498","image-keyboard-response","175","2.0.0","191619","p159pw1yfrp","bigger","2341","size comparision recognition timed","NA","stimuli/20-Inongruent.jpg","m","","","","","right","m","true"
"","null","html-keyboard-response","176","2.0.0","192521","p159pw1yfrp","bigger","2341","size comparision recognition timed","NA","<p>Correct!</p>","null","","","","","","",""
"","null","html-keyboard-response","177","2.0.0","193523","p159pw1yfrp","bigger","2341","size comparision recognition timed","NA","<div style=""font-size:60px;"">+</div>","null","","","","","","",""
"","573","image-keyboard-response","178","2.0.0","194097","p159pw1yfrp","bigger","2341","size comparision recognition timed","NA","stimuli/3-Inongruent.jpg","m","","","","","right","m","true"
"","null","html-keyboard-response","179","2.0.0","194999","p159pw1yfrp","bigger","2341","size comparision recognition timed","NA","<p>Correct!</p>","null","","","","","","",""
"","null","html-keyboard-response","180","2.0.0","196001","p159pw1yfrp","bigger","2341","size comparision recognition timed","NA","<div style=""font-size:60px;"">+</div>","null","","","","","","",""
"","1163","image-keyboard-response","181","2.0.0","197165","p159pw1yfrp","bigger","2341","size comparision recognition timed","NA","stimuli/22-Inongruent.jpg","m","","","","","right","m","true"
"","null","html-keyboard-response","182","2.0.0","198067","p159pw1yfrp","bigger","2341","size comparision recognition timed","NA","<p>Correct!</p>","null","","","","","","",""
"","null","html-keyboard-response","183","2.0.0","199068","p159pw1yfrp","bigger","2341","size comparision recognition timed","NA","<div style=""font-size:60px;"">+</div>","null","","","","","","",""
"","1033","image-keyboard-response","184","2.0.0","200101","p159pw1yfrp","bigger","2341","size comparision recognition timed","NA","stimuli/16-Inongruent.jpg","m","","","","","right","m","true"
"","null","html-keyboard-response","185","2.0.0","201003","p159pw1yfrp","bigger","2341","size comparision recognition timed","NA","<p>Correct!</p>","null","","","","","","",""
"","null","html-keyboard-response","186","2.0.0","202005","p159pw1yfrp","bigger","2341","size comparision recognition timed","NA","<div style=""font-size:60px;"">+</div>","null","","","","","","",""
"","804","image-keyboard-response","187","2.0.0","202810","p159pw1yfrp","bigger","2341","size comparision recognition timed","NA","stimuli/22-Inongruent.jpg","m","","","","","right","m","true"
"","null","html-keyboard-response","188","2.0.0","203711","p159pw1yfrp","bigger","2341","size comparision recognition timed","NA","<p>Correct!</p>","null","","","","","","",""
"","null","html-keyboard-response","189","2.0.0","204714","p159pw1yfrp","bigger","2341","size comparision recognition timed","NA","<div style=""font-size:60px;"">+</div>","null","","","","","","",""
"","671","image-keyboard-response","190","2.0.0","205386","p159pw1yfrp","bigger","2341","size comparision recognition timed","NA","stimuli/35-Congruent.jpg","z","","","","","left","z","true"
"","null","html-keyboard-response","191","2.0.0","206287","p159pw1yfrp","bigger","2341","size comparision recognition timed","NA","<p>Correct!</p>","null","","","","","","",""
"","null","html-keyboard-response","192","2.0.0","207289","p159pw1yfrp","bigger","2341","size comparision recognition timed","NA","<div style=""font-size:60px;"">+</div>","null","","","","","","",""
"","1238","image-keyboard-response","193","2.0.0","208528","p159pw1yfrp","bigger","2341","size comparision recognition timed","NA","stimuli/3-Congruent.jpg","z","","","","","left","z","true"
"","null","html-keyboard-response","194","2.0.0","209429","p159pw1yfrp","bigger","2341","size comparision recognition timed","NA","<p>Correct!</p>","null","","","","","","",""
"","null","html-keyboard-response","195","2.0.0","210431","p159pw1yfrp","bigger","2341","size comparision recognition timed","NA","<div style=""font-size:60px;"">+</div>","null","","","","","","",""
"","742","image-keyboard-response","196","2.0.0","211174","p159pw1yfrp","bigger","2341","size comparision recognition timed","NA","stimuli/36-Congruent.jpg","z","","","","","left","z","true"
"","null","html-keyboard-response","197","2.0.0","212076","p159pw1yfrp","bigger","2341","size comparision recognition timed","NA","<p>Correct!</p>","null","","","","","","",""
"","null","html-keyboard-response","198","2.0.0","213077","p159pw1yfrp","bigger","2341","size comparision recognition timed","NA","<div style=""font-size:60px;"">+</div>","null","","","","","","",""
"","1002","image-keyboard-response","199","2.0.0","214081","p159pw1yfrp","bigger","2341","size comparision recognition timed","NA","stimuli/33-Congruent.jpg","z","","","","","left","z","true"
"","null","html-keyboard-response","200","2.0.0","214982","p159pw1yfrp","bigger","2341","size comparision recognition timed","NA","<p>Correct!</p>","null","","","","","","",""
"","null","html-keyboard-response","201","2.0.0","215984","p159pw1yfrp","bigger","2341","size comparision recognition timed","NA","<div style=""font-size:60px;"">+</div>","null","","","","","","",""
"","639","image-keyboard-response","202","2.0.0","216623","p159pw1yfrp","bigger","2341","size comparision recognition timed","NA","stimuli/4-Congruent.jpg","z","","","","","left","z","true"
"","null","html-keyboard-response","203","2.0.0","217525","p159pw1yfrp","bigger","2341","size comparision recognition timed","NA","<p>Correct!</p>","null","","","","","","",""
"","null","html-keyboard-response","204","2.0.0","218527","p159pw1yfrp","bigger","2341","size comparision recognition timed","NA","<div style=""font-size:60px;"">+</div>","null","","","","","","",""
"","1641","image-keyboard-response","205","2.0.0","220169","p159pw1yfrp","bigger","2341","size comparision recognition timed","NA","stimuli/26-Inongruent.jpg","m","","","","","right","m","true"
"","null","html-keyboard-response","206","2.0.0","221072","p159pw1yfrp","bigger","2341","size comparision recognition timed","NA","<p>Correct!</p>","null","","","","","","",""
"","null","html-keyboard-response","207","2.0.0","222073","p159pw1yfrp","bigger","2341","size comparision recognition timed","NA","<div style=""font-size:60px;"">+</div>","null","","","","","","",""
"","1491","image-keyboard-response","208","2.0.0","223565","p159pw1yfrp","bigger","2341","size comparision recognition timed","NA","stimuli/32-Inongruent.jpg","m","","","","","right","m","true"
"","null","html-keyboard-response","209","2.0.0","224468","p159pw1yfrp","bigger","2341","size comparision recognition timed","NA","<p>Correct!</p>","null","","","","","","",""
"","null","html-keyboard-response","210","2.0.0","225469","p159pw1yfrp","bigger","2341","size comparision recognition timed","NA","<div style=""font-size:60px;"">+</div>","null","","","","","","",""
"","1512","image-keyboard-response","211","2.0.0","226982","p159pw1yfrp","bigger","2341","size comparision recognition timed","NA","stimuli/23-Congruent.jpg","z","","","","","left","z","true"
"","null","html-keyboard-response","212","2.0.0","227884","p159pw1yfrp","bigger","2341","size comparision recognition timed","NA","<p>Correct!</p>","null","","","","","","",""
"","null","html-keyboard-response","213","2.0.0","228885","p159pw1yfrp","bigger","2341","size comparision recognition timed","NA","<div style=""font-size:60px;"">+</div>","null","","","","","","",""
"","1448","image-keyboard-response","214","2.0.0","230334","p159pw1yfrp","bigger","2341","size comparision recognition timed","NA","stimuli/9-Congruent.jpg","z","","","","","left","z","true"
"","null","html-keyboard-response","215","2.0.0","231236","p159pw1yfrp","bigger","2341","size comparision recognition timed","NA","<p>Correct!</p>","null","","","","","","",""
"","null","html-keyboard-response","216","2.0.0","232238","p159pw1yfrp","bigger","2341","size comparision recognition timed","NA","<div style=""font-size:60px;"">+</div>","null","","","","","","",""
"","941","image-keyboard-response","217","2.0.0","233180","p159pw1yfrp","bigger","2341","size comparision recognition timed","NA","stimuli/6-Inongruent.jpg","m","","","","","right","m","true"
"","null","html-keyboard-response","218","2.0.0","234081","p159pw1yfrp","bigger","2341","size comparision recognition timed","NA","<p>Correct!</p>","null","","","","","","",""
"","null","html-keyboard-response","219","2.0.0","235083","p159pw1yfrp","bigger","2341","size comparision recognition timed","NA","<div style=""font-size:60px;"">+</div>","null","","","","","","",""
"","649","image-keyboard-response","220","2.0.0","235733","p159pw1yfrp","bigger","2341","size comparision recognition timed","NA","stimuli/15-Congruent.jpg","z","","","","","left","z","true"
"","null","html-keyboard-response","221","2.0.0","236634","p159pw1yfrp","bigger","2341","size comparision recognition timed","NA","<p>Correct!</p>","null","","","","","","",""
"","null","html-keyboard-response","222","2.0.0","237636","p159pw1yfrp","bigger","2341","size comparision recognition timed","NA","<div style=""font-size:60px;"">+</div>","null","","","","","","",""
"","785","image-keyboard-response","223","2.0.0","238422","p159pw1yfrp","bigger","2341","size comparision recognition timed","NA","stimuli/34-Congruent.jpg","z","","","","","left","z","true"
"","null","html-keyboard-response","224","2.0.0","239323","p159pw1yfrp","bigger","2341","size comparision recognition timed","NA","<p>Correct!</p>","null","","","","","","",""
"","null","html-keyboard-response","225","2.0.0","240324","p159pw1yfrp","bigger","2341","size comparision recognition timed","NA","<div style=""font-size:60px;"">+</div>","null","","","","","","",""
"","1496","image-keyboard-response","226","2.0.0","241821","p159pw1yfrp","bigger","2341","size comparision recognition timed","NA","stimuli/4-Inongruent.jpg","z","","","","","right","m","false"
"","null","html-keyboard-response","227","2.0.0","246823","p159pw1yfrp","bigger","2341","size comparision recognition timed","NA","<p>Incorrect.</p><p>Remember to select the <b>bigger</b> image.</p><p>Continuing in 5 seconds...</p>","null","","","","","","",""
"","null","html-keyboard-response","228","2.0.0","247825","p159pw1yfrp","bigger","2341","size comparision recognition timed","NA","<div style=""font-size:60px;"">+</div>","null","","","","","","",""
"","2738","image-keyboard-response","229","2.0.0","250565","p159pw1yfrp","bigger","2341","size comparision recognition timed","NA","stimuli/31-Inongruent.jpg","m","","","","","right","m","true"
"","null","html-keyboard-response","230","2.0.0","251466","p159pw1yfrp","bigger","2341","size comparision recognition timed","NA","<p>Correct!</p>","null","","","","","","",""
"","null","html-keyboard-response","231","2.0.0","252469","p159pw1yfrp","bigger","2341","size comparision recognition timed","NA","<div style=""font-size:60px;"">+</div>","null","","","","","","",""
"","718","image-keyboard-response","232","2.0.0","253188","p159pw1yfrp","bigger","2341","size comparision recognition timed","NA","stimuli/17-Congruent.jpg","z","","","","","left","z","true"
"","null","html-keyboard-response","233","2.0.0","254090","p159pw1yfrp","bigger","2341","size comparision recognition timed","NA","<p>Correct!</p>","null","","","","","","",""
"","null","html-keyboard-response","234","2.0.0","255093","p159pw1yfrp","bigger","2341","size comparision recognition timed","NA","<div style=""font-size:60px;"">+</div>","null","","","","","","",""
"","705","image-keyboard-response","235","2.0.0","255799","p159pw1yfrp","bigger","2341","size comparision recognition timed","NA","stimuli/29-Congruent.jpg","z","","","","","left","z","true"
"","null","html-keyboard-response","236","2.0.0","256701","p159pw1yfrp","bigger","2341","size comparision recognition timed","NA","<p>Correct!</p>","null","","","","","","",""
"","null","html-keyboard-response","237","2.0.0","257703","p159pw1yfrp","bigger","2341","size comparision recognition timed","NA","<div style=""font-size:60px;"">+</div>","null","","","","","","",""
"","1047","image-keyboard-response","238","2.0.0","258750","p159pw1yfrp","bigger","2341","size comparision recognition timed","NA","stimuli/18-Inongruent.jpg","m","","","","","right","m","true"
"","null","html-keyboard-response","239","2.0.0","259652","p159pw1yfrp","bigger","2341","size comparision recognition timed","NA","<p>Correct!</p>","null","","","","","","",""
"","null","html-keyboard-response","240","2.0.0","260654","p159pw1yfrp","bigger","2341","size comparision recognition timed","NA","<div style=""font-size:60px;"">+</div>","null","","","","","","",""
"","2060","image-keyboard-response","241","2.0.0","262714","p159pw1yfrp","bigger","2341","size comparision recognition timed","NA","stimuli/14-Congruent.jpg","z","","","","","left","z","true"
"","null","html-keyboard-response","242","2.0.0","263615","p159pw1yfrp","bigger","2341","size comparision recognition timed","NA","<p>Correct!</p>","null","","","","","","",""
"","null","html-keyboard-response","243","2.0.0","264617","p159pw1yfrp","bigger","2341","size comparision recognition timed","NA","<div style=""font-size:60px;"">+</div>","null","","","","","","",""
"","823","image-keyboard-response","244","2.0.0","265441","p159pw1yfrp","bigger","2341","size comparision recognition timed","NA","stimuli/35-Inongruent.jpg","m","","","","","right","m","true"
"","null","html-keyboard-response","245","2.0.0","266341","p159pw1yfrp","bigger","2341","size comparision recognition timed","NA","<p>Correct!</p>","null","","","","","","",""
"","null","html-keyboard-response","246","2.0.0","267344","p159pw1yfrp","bigger","2341","size comparision recognition timed","NA","<div style=""font-size:60px;"">+</div>","null","","","","","","",""
"","1388","image-keyboard-response","247","2.0.0","268733","p159pw1yfrp","bigger","2341","size comparision recognition timed","NA","stimuli/12-Congruent.jpg","z","","","","","left","z","true"
"","null","html-keyboard-response","248","2.0.0","269635","p159pw1yfrp","bigger","2341","size comparision recognition timed","NA","<p>Correct!</p>","null","","","","","","",""
"","null","html-keyboard-response","249","2.0.0","270638","p159pw1yfrp","bigger","2341","size comparision recognition timed","NA","<div style=""font-size:60px;"">+</div>","null","","","","","","",""
"","1276","image-keyboard-response","250","2.0.0","271914","p159pw1yfrp","bigger","2341","size comparision recognition timed","NA","stimuli/5-Inongruent.jpg","m","","","","","right","m","true"
"","null","html-keyboard-response","251","2.0.0","272816","p159pw1yfrp","bigger","2341","size comparision recognition timed","NA","<p>Correct!</p>","null","","","","","","",""
"","null","html-keyboard-response","252","2.0.0","273819","p159pw1yfrp","bigger","2341","size comparision recognition timed","NA","<div style=""font-size:60px;"">+</div>","null","","","","","","",""
"","4287","image-keyboard-response","253","2.0.0","278107","p159pw1yfrp","bigger","2341","size comparision recognition timed","NA","stimuli/34-Inongruent.jpg","m","","","","","right","m","true"
"","null","html-keyboard-response","254","2.0.0","279009","p159pw1yfrp","bigger","2341","size comparision recognition timed","NA","<p>Correct!</p>","null","","","","","","",""
"","null","html-keyboard-response","255","2.0.0","280011","p159pw1yfrp","bigger","2341","size comparision recognition timed","NA","<div style=""font-size:60px;"">+</div>","null","","","","","","",""
"","690","image-keyboard-response","256","2.0.0","280702","p159pw1yfrp","bigger","2341","size comparision recognition timed","NA","stimuli/34-Congruent.jpg","z","","","","","left","z","true"
"","null","html-keyboard-response","257","2.0.0","281603","p159pw1yfrp","bigger","2341","size comparision recognition timed","NA","<p>Correct!</p>","null","","","","","","",""
"","null","html-keyboard-response","258","2.0.0","282605","p159pw1yfrp","bigger","2341","size comparision recognition timed","NA","<div style=""font-size:60px;"">+</div>","null","","","","","","",""
"","815","image-keyboard-response","259","2.0.0","283421","p159pw1yfrp","bigger","2341","size comparision recognition timed","NA","stimuli/28-Congruent.jpg","z","","","","","left","z","true"
"","null","html-keyboard-response","260","2.0.0","284323","p159pw1yfrp","bigger","2341","size comparision recognition timed","NA","<p>Correct!</p>","null","","","","","","",""
"","null","html-keyboard-response","261","2.0.0","285326","p159pw1yfrp","bigger","2341","size comparision recognition timed","NA","<div style=""font-size:60px;"">+</div>","null","","","","","","",""
"","978","image-keyboard-response","262","2.0.0","286305","p159pw1yfrp","bigger","2341","size comparision recognition timed","NA","stimuli/19-Congruent.jpg","z","","","","","left","z","true"
"","null","html-keyboard-response","263","2.0.0","287207","p159pw1yfrp","bigger","2341","size comparision recognition timed","NA","<p>Correct!</p>","null","","","","","","",""
"","null","html-keyboard-response","264","2.0.0","288209","p159pw1yfrp","bigger","2341","size comparision recognition timed","NA","<div style=""font-size:60px;"">+</div>","null","","","","","","",""
"","3289","image-keyboard-response","265","2.0.0","291499","p159pw1yfrp","bigger","2341","size comparision recognition timed","NA","stimuli/10-Inongruent.jpg","m","","","","","right","m","true"
"","null","html-keyboard-response","266","2.0.0","292400","p159pw1yfrp","bigger","2341","size comparision recognition timed","NA","<p>Correct!</p>","null","","","","","","",""
"","null","html-keyboard-response","267","2.0.0","293401","p159pw1yfrp","bigger","2341","size comparision recognition timed","NA","<div style=""font-size:60px;"">+</div>","null","","","","","","",""
"","1069","image-keyboard-response","268","2.0.0","294472","p159pw1yfrp","bigger","2341","size comparision recognition timed","NA","stimuli/12-Inongruent.jpg","m","","","","","right","m","true"
"","null","html-keyboard-response","269","2.0.0","295373","p159pw1yfrp","bigger","2341","size comparision recognition timed","NA","<p>Correct!</p>","null","","","","","","",""
"","null","html-keyboard-response","270","2.0.0","296375","p159pw1yfrp","bigger","2341","size comparision recognition timed","NA","<div style=""font-size:60px;"">+</div>","null","","","","","","",""
"","1948","image-keyboard-response","271","2.0.0","298324","p159pw1yfrp","bigger","2341","size comparision recognition timed","NA","stimuli/33-Inongruent.jpg","m","","","","","right","m","true"
"","null","html-keyboard-response","272","2.0.0","299226","p159pw1yfrp","bigger","2341","size comparision recognition timed","NA","<p>Correct!</p>","null","","","","","","",""
"","null","html-keyboard-response","273","2.0.0","300228","p159pw1yfrp","bigger","2341","size comparision recognition timed","NA","<div style=""font-size:60px;"">+</div>","null","","","","","","",""
"","1179","image-keyboard-response","274","2.0.0","301408","p159pw1yfrp","bigger","2341","size comparision recognition timed","NA","stimuli/21-Inongruent.jpg","m","","","","","right","m","true"
"","null","html-keyboard-response","275","2.0.0","302309","p159pw1yfrp","bigger","2341","size comparision recognition timed","NA","<p>Correct!</p>","null","","","","","","",""
"","null","html-keyboard-response","276","2.0.0","303312","p159pw1yfrp","bigger","2341","size comparision recognition timed","NA","<div style=""font-size:60px;"">+</div>","null","","","","","","",""
"","659","image-keyboard-response","277","2.0.0","303972","p159pw1yfrp","bigger","2341","size comparision recognition timed","NA","stimuli/10-Congruent.jpg","z","","","","","left","z","true"
"","null","html-keyboard-response","278","2.0.0","304873","p159pw1yfrp","bigger","2341","size comparision recognition timed","NA","<p>Correct!</p>","null","","","","","","",""
"","null","html-keyboard-response","279","2.0.0","305875","p159pw1yfrp","bigger","2341","size comparision recognition timed","NA","<div style=""font-size:60px;"">+</div>","null","","","","","","",""
"","741","image-keyboard-response","280","2.0.0","306618","p159pw1yfrp","bigger","2341","size comparision recognition timed","NA","stimuli/7-Inongruent.jpg","m","","","","","right","m","true"
"","null","html-keyboard-response","281","2.0.0","307519","p159pw1yfrp","bigger","2341","size comparision recognition timed","NA","<p>Correct!</p>","null","","","","","","",""
"","null","html-keyboard-response","282","2.0.0","308521","p159pw1yfrp","bigger","2341","size comparision recognition timed","NA","<div style=""font-size:60px;"">+</div>","null","","","","","","",""
"","853","image-keyboard-response","283","2.0.0","309375","p159pw1yfrp","bigger","2341","size comparision recognition timed","NA","stimuli/23-Inongruent.jpg","m","","","","","right","m","true"
"","null","html-keyboard-response","284","2.0.0","310277","p159pw1yfrp","bigger","2341","size comparision recognition timed","NA","<p>Correct!</p>","null","","","","","","",""
"","null","html-keyboard-response","285","2.0.0","311277","p159pw1yfrp","bigger","2341","size comparision recognition timed","NA","<div style=""font-size:60px;"">+</div>","null","","","","","","",""
"","1215","image-keyboard-response","286","2.0.0","312493","p159pw1yfrp","bigger","2341","size comparision recognition timed","NA","stimuli/13-Inongruent.jpg","m","","","","","right","m","true"
"","null","html-keyboard-response","287","2.0.0","313394","p159pw1yfrp","bigger","2341","size comparision recognition timed","NA","<p>Correct!</p>","null","","","","","","",""
"","null","html-keyboard-response","288","2.0.0","314397","p159pw1yfrp","bigger","2341","size comparision recognition timed","NA","<div style=""font-size:60px;"">+</div>","null","","","","","","",""
"","1833","image-keyboard-response","289","2.0.0","316231","p159pw1yfrp","bigger","2341","size comparision recognition timed","NA","stimuli/29-Inongruent.jpg","m","","","","","right","m","true"
"","null","html-keyboard-response","290","2.0.0","317132","p159pw1yfrp","bigger","2341","size comparision recognition timed","NA","<p>Correct!</p>","null","","","","","","",""
"","null","html-keyboard-response","291","2.0.0","318135","p159pw1yfrp","bigger","2341","size comparision recognition timed","NA","<div style=""font-size:60px;"">+</div>","null","","","","","","",""
"","1430","image-keyboard-response","292","2.0.0","319565","p159pw1yfrp","bigger","2341","size comparision recognition timed","NA","stimuli/3-Congruent.jpg","z","","","","","left","z","true"
"","null","html-keyboard-response","293","2.0.0","320467","p159pw1yfrp","bigger","2341","size comparision recognition timed","NA","<p>Correct!</p>","null","","","","","","",""
"","null","html-keyboard-response","294","2.0.0","321469","p159pw1yfrp","bigger","2341","size comparision recognition timed","NA","<div style=""font-size:60px;"">+</div>","null","","","","","","",""
"","1248","image-keyboard-response","295","2.0.0","322717","p159pw1yfrp","bigger","2341","size comparision recognition timed","NA","stimuli/12-Inongruent.jpg","m","","","","","right","m","true"
"","null","html-keyboard-response","296","2.0.0","323619","p159pw1yfrp","bigger","2341","size comparision recognition timed","NA","<p>Correct!</p>","null","","","","","","",""
"","null","html-keyboard-response","297","2.0.0","324622","p159pw1yfrp","bigger","2341","size comparision recognition timed","NA","<div style=""font-size:60px;"">+</div>","null","","","","","","",""
"","838","image-keyboard-response","298","2.0.0","325460","p159pw1yfrp","bigger","2341","size comparision recognition timed","NA","stimuli/13-Congruent.jpg","z","","","","","left","z","true"
"","null","html-keyboard-response","299","2.0.0","326362","p159pw1yfrp","bigger","2341","size comparision recognition timed","NA","<p>Correct!</p>","null","","","","","","",""
"","null","html-keyboard-response","300","2.0.0","327363","p159pw1yfrp","bigger","2341","size comparision recognition timed","NA","<div style=""font-size:60px;"">+</div>","null","","","","","","",""
"","1259","image-keyboard-response","301","2.0.0","328623","p159pw1yfrp","bigger","2341","size comparision recognition timed","NA","stimuli/10-Congruent.jpg","z","","","","","left","z","true"
"","null","html-keyboard-response","302","2.0.0","329526","p159pw1yfrp","bigger","2341","size comparision recognition timed","NA","<p>Correct!</p>","null","","","","","","",""
"","null","html-keyboard-response","303","2.0.0","330527","p159pw1yfrp","bigger","2341","size comparision recognition timed","NA","<div style=""font-size:60px;"">+</div>","null","","","","","","",""
"","1357","image-keyboard-response","304","2.0.0","331885","p159pw1yfrp","bigger","2341","size comparision recognition timed","NA","stimuli/12-Congruent.jpg","z","","","","","left","z","true"
"","null","html-keyboard-response","305","2.0.0","332787","p159pw1yfrp","bigger","2341","size comparision recognition timed","NA","<p>Correct!</p>","null","","","","","","",""
"","null","html-keyboard-response","306","2.0.0","333789","p159pw1yfrp","bigger","2341","size comparision recognition timed","NA","<div style=""font-size:60px;"">+</div>","null","","","","","","",""
"","977","image-keyboard-response","307","2.0.0","334767","p159pw1yfrp","bigger","2341","size comparision recognition timed","NA","stimuli/18-Congruent.jpg","z","","","","","left","z","true"
"","null","html-keyboard-response","308","2.0.0","335668","p159pw1yfrp","bigger","2341","size comparision recognition timed","NA","<p>Correct!</p>","null","","","","","","",""
"","null","html-keyboard-response","309","2.0.0","336670","p159pw1yfrp","bigger","2341","size comparision recognition timed","NA","<div style=""font-size:60px;"">+</div>","null","","","","","","",""
"","851","image-keyboard-response","310","2.0.0","337522","p159pw1yfrp","bigger","2341","size comparision recognition timed","NA","stimuli/26-Inongruent.jpg","m","","","","","right","m","true"
"","null","html-keyboard-response","311","2.0.0","338424","p159pw1yfrp","bigger","2341","size comparision recognition timed","NA","<p>Correct!</p>","null","","","","","","",""
"","null","html-keyboard-response","312","2.0.0","339426","p159pw1yfrp","bigger","2341","size comparision recognition timed","NA","<div style=""font-size:60px;"">+</div>","null","","","","","","",""
"","912","image-keyboard-response","313","2.0.0","340339","p159pw1yfrp","bigger","2341","size comparision recognition timed","NA","stimuli/36-Inongruent.jpg","m","","","","","right","m","true"
"","null","html-keyboard-response","314","2.0.0","341241","p159pw1yfrp","bigger","2341","size comparision recognition timed","NA","<p>Correct!</p>","null","","","","","","",""
"","null","html-keyboard-response","315","2.0.0","342243","p159pw1yfrp","bigger","2341","size comparision recognition timed","NA","<div style=""font-size:60px;"">+</div>","null","","","","","","",""
"","1789","image-keyboard-response","316","2.0.0","344033","p159pw1yfrp","bigger","2341","size comparision recognition timed","NA","stimuli/19-Inongruent.jpg","m","","","","","right","m","true"
"","null","html-keyboard-response","317","2.0.0","344934","p159pw1yfrp","bigger","2341","size comparision recognition timed","NA","<p>Correct!</p>","null","","","","","","",""
"","null","html-keyboard-response","318","2.0.0","345936","p159pw1yfrp","bigger","2341","size comparision recognition timed","NA","<div style=""font-size:60px;"">+</div>","null","","","","","","",""
"","1249","image-keyboard-response","319","2.0.0","347186","p159pw1yfrp","bigger","2341","size comparision recognition timed","NA","stimuli/21-Inongruent.jpg","z","","","","","right","m","false"
"","null","html-keyboard-response","320","2.0.0","352189","p159pw1yfrp","bigger","2341","size comparision recognition timed","NA","<p>Incorrect.</p><p>Remember to select the <b>bigger</b> image.</p><p>Continuing in 5 seconds...</p>","null","","","","","","",""
"","null","html-keyboard-response","321","2.0.0","353191","p159pw1yfrp","bigger","2341","size comparision recognition timed","NA","<div style=""font-size:60px;"">+</div>","null","","","","","","",""
"","856","image-keyboard-response","322","2.0.0","354048","p159pw1yfrp","bigger","2341","size comparision recognition timed","NA","stimuli/26-Congruent.jpg","z","","","","","left","z","true"
"","null","html-keyboard-response","323","2.0.0","354949","p159pw1yfrp","bigger","2341","size comparision recognition timed","NA","<p>Correct!</p>","null","","","","","","",""
"","null","html-keyboard-response","324","2.0.0","355952","p159pw1yfrp","bigger","2341","size comparision recognition timed","NA","<div style=""font-size:60px;"">+</div>","null","","","","","","",""
"","1102","image-keyboard-response","325","2.0.0","357055","p159pw1yfrp","bigger","2341","size comparision recognition timed","NA","stimuli/9-Congruent.jpg","z","","","","","left","z","true"
"","null","html-keyboard-response","326","2.0.0","357957","p159pw1yfrp","bigger","2341","size comparision recognition timed","NA","<p>Correct!</p>","null","","","","","","",""
"","null","html-keyboard-response","327","2.0.0","358958","p159pw1yfrp","bigger","2341","size comparision recognition timed","NA","<div style=""font-size:60px;"">+</div>","null","","","","","","",""
"","2132","image-keyboard-response","328","2.0.0","361092","p159pw1yfrp","bigger","2341","size comparision recognition timed","NA","stimuli/23-Congruent.jpg","z","","","","","left","z","true"
"","null","html-keyboard-response","329","2.0.0","361993","p159pw1yfrp","bigger","2341","size comparision recognition timed","NA","<p>Correct!</p>","null","","","","","","",""
"","null","html-keyboard-response","330","2.0.0","362996","p159pw1yfrp","bigger","2341","size comparision recognition timed","NA","<div style=""font-size:60px;"">+</div>","null","","","","","","",""
"","1305","image-keyboard-response","331","2.0.0","364301","p159pw1yfrp","bigger","2341","size comparision recognition timed","NA","stimuli/9-Inongruent.jpg","m","","","","","right","m","true"
"","null","html-keyboard-response","332","2.0.0","365203","p159pw1yfrp","bigger","2341","size comparision recognition timed","NA","<p>Correct!</p>","null","","","","","","",""
"","null","html-keyboard-response","333","2.0.0","366205","p159pw1yfrp","bigger","2341","size comparision recognition timed","NA","<div style=""font-size:60px;"">+</div>","null","","","","","","",""
"","1056","image-keyboard-response","334","2.0.0","367262","p159pw1yfrp","bigger","2341","size comparision recognition timed","NA","stimuli/26-Congruent.jpg","z","","","","","left","z","true"
"","null","html-keyboard-response","335","2.0.0","368163","p159pw1yfrp","bigger","2341","size comparision recognition timed","NA","<p>Correct!</p>","null","","","","","","",""
"","null","html-keyboard-response","336","2.0.0","369165","p159pw1yfrp","bigger","2341","size comparision recognition timed","NA","<div style=""font-size:60px;"">+</div>","null","","","","","","",""
"","3693","image-keyboard-response","337","2.0.0","372859","p159pw1yfrp","bigger","2341","size comparision recognition timed","NA","stimuli/32-Congruent.jpg","z","","","","","left","z","true"
"","null","html-keyboard-response","338","2.0.0","373761","p159pw1yfrp","bigger","2341","size comparision recognition timed","NA","<p>Correct!</p>","null","","","","","","",""
"","null","html-keyboard-response","339","2.0.0","374763","p159pw1yfrp","bigger","2341","size comparision recognition timed","NA","<div style=""font-size:60px;"">+</div>","null","","","","","","",""
"","804","image-keyboard-response","340","2.0.0","375568","p159pw1yfrp","bigger","2341","size comparision recognition timed","NA","stimuli/13-Congruent.jpg","z","","","","","left","z","true"
"","null","html-keyboard-response","341","2.0.0","376471","p159pw1yfrp","bigger","2341","size comparision recognition timed","NA","<p>Correct!</p>","null","","","","","","",""
"","null","html-keyboard-response","342","2.0.0","377473","p159pw1yfrp","bigger","2341","size comparision recognition timed","NA","<div style=""font-size:60px;"">+</div>","null","","","","","","",""
"","1051","image-keyboard-response","343","2.0.0","378526","p159pw1yfrp","bigger","2341","size comparision recognition timed","NA","stimuli/30-Inongruent.jpg","m","","","","","right","m","true"
"","null","html-keyboard-response","344","2.0.0","379428","p159pw1yfrp","bigger","2341","size comparision recognition timed","NA","<p>Correct!</p>","null","","","","","","",""
"","null","html-keyboard-response","345","2.0.0","380430","p159pw1yfrp","bigger","2341","size comparision recognition timed","NA","<div style=""font-size:60px;"">+</div>","null","","","","","","",""
"","987","image-keyboard-response","346","2.0.0","381418","p159pw1yfrp","bigger","2341","size comparision recognition timed","NA","stimuli/15-Inongruent.jpg","m","","","","","right","m","true"
"","null","html-keyboard-response","347","2.0.0","382320","p159pw1yfrp","bigger","2341","size comparision recognition timed","NA","<p>Correct!</p>","null","","","","","","",""
"","null","html-keyboard-response","348","2.0.0","383322","p159pw1yfrp","bigger","2341","size comparision recognition timed","NA","<div style=""font-size:60px;"">+</div>","null","","","","","","",""
"","1088","image-keyboard-response","349","2.0.0","384411","p159pw1yfrp","bigger","2341","size comparision recognition timed","NA","stimuli/24-Inongruent.jpg","m","","","","","right","m","true"
"","null","html-keyboard-response","350","2.0.0","385313","p159pw1yfrp","bigger","2341","size comparision recognition timed","NA","<p>Correct!</p>","null","","","","","","",""
"","null","html-keyboard-response","351","2.0.0","386316","p159pw1yfrp","bigger","2341","size comparision recognition timed","NA","<div style=""font-size:60px;"">+</div>","null","","","","","","",""
"","882","image-keyboard-response","352","2.0.0","387199","p159pw1yfrp","bigger","2341","size comparision recognition timed","NA","stimuli/11-Congruent.jpg","z","","","","","left","z","true"
"","null","html-keyboard-response","353","2.0.0","388101","p159pw1yfrp","bigger","2341","size comparision recognition timed","NA","<p>Correct!</p>","null","","","","","","",""
"","null","html-keyboard-response","354","2.0.0","389103","p159pw1yfrp","bigger","2341","size comparision recognition timed","NA","<div style=""font-size:60px;"">+</div>","null","","","","","","",""
"","635","image-keyboard-response","355","2.0.0","389739","p159pw1yfrp","bigger","2341","size comparision recognition timed","NA","stimuli/11-Congruent.jpg","z","","","","","left","z","true"
"","null","html-keyboard-response","356","2.0.0","390641","p159pw1yfrp","bigger","2341","size comparision recognition timed","NA","<p>Correct!</p>","null","","","","","","",""
"","null","html-keyboard-response","357","2.0.0","391643","p159pw1yfrp","bigger","2341","size comparision recognition timed","NA","<div style=""font-size:60px;"">+</div>","null","","","","","","",""
"","854","image-keyboard-response","358","2.0.0","392498","p159pw1yfrp","bigger","2341","size comparision recognition timed","NA","stimuli/27-Inongruent.jpg","m","","","","","right","m","true"
"","null","html-keyboard-response","359","2.0.0","393400","p159pw1yfrp","bigger","2341","size comparision recognition timed","NA","<p>Correct!</p>","null","","","","","","",""
"","null","html-keyboard-response","360","2.0.0","394402","p159pw1yfrp","bigger","2341","size comparision recognition timed","NA","<div style=""font-size:60px;"">+</div>","null","","","","","","",""
"","844","image-keyboard-response","361","2.0.0","395246","p159pw1yfrp","bigger","2341","size comparision recognition timed","NA","stimuli/1-Inongruent.jpg","m","","","","","right","m","true"
"","null","html-keyboard-response","362","2.0.0","396148","p159pw1yfrp","bigger","2341","size comparision recognition timed","NA","<p>Correct!</p>","null","","","","","","",""
"","null","html-keyboard-response","363","2.0.0","397150","p159pw1yfrp","bigger","2341","size comparision recognition timed","NA","<div style=""font-size:60px;"">+</div>","null","","","","","","",""
"","738","image-keyboard-response","364","2.0.0","397888","p159pw1yfrp","bigger","2341","size comparision recognition timed","NA","stimuli/11-Inongruent.jpg","m","","","","","right","m","true"
"","null","html-keyboard-response","365","2.0.0","398790","p159pw1yfrp","bigger","2341","size comparision recognition timed","NA","<p>Correct!</p>","null","","","","","","",""
"","null","html-keyboard-response","366","2.0.0","399790","p159pw1yfrp","bigger","2341","size comparision recognition timed","NA","<div style=""font-size:60px;"">+</div>","null","","","","","","",""
"","2023","image-keyboard-response","367","2.0.0","401814","p159pw1yfrp","bigger","2341","size comparision recognition timed","NA","stimuli/3-Inongruent.jpg","m","","","","","right","m","true"
"","null","html-keyboard-response","368","2.0.0","402716","p159pw1yfrp","bigger","2341","size comparision recognition timed","NA","<p>Correct!</p>","null","","","","","","",""
"","null","html-keyboard-response","369","2.0.0","403719","p159pw1yfrp","bigger","2341","size comparision recognition timed","NA","<div style=""font-size:60px;"">+</div>","null","","","","","","",""
"","1049","image-keyboard-response","370","2.0.0","404769","p159pw1yfrp","bigger","2341","size comparision recognition timed","NA","stimuli/25-Inongruent.jpg","m","","","","","right","m","true"
"","null","html-keyboard-response","371","2.0.0","405670","p159pw1yfrp","bigger","2341","size comparision recognition timed","NA","<p>Correct!</p>","null","","","","","","",""
"","null","html-keyboard-response","372","2.0.0","406672","p159pw1yfrp","bigger","2341","size comparision recognition timed","NA","<div style=""font-size:60px;"">+</div>","null","","","","","","",""
"","1006","image-keyboard-response","373","2.0.0","407679","p159pw1yfrp","bigger","2341","size comparision recognition timed","NA","stimuli/6-Congruent.jpg","z","","","","","left","z","true"
"","null","html-keyboard-response","374","2.0.0","408580","p159pw1yfrp","bigger","2341","size comparision recognition timed","NA","<p>Correct!</p>","null","","","","","","",""
"","null","html-keyboard-response","375","2.0.0","409582","p159pw1yfrp","bigger","2341","size comparision recognition timed","NA","<div style=""font-size:60px;"">+</div>","null","","","","","","",""
"","819","image-keyboard-response","376","2.0.0","410402","p159pw1yfrp","bigger","2341","size comparision recognition timed","NA","stimuli/25-Congruent.jpg","z","","","","","left","z","true"
"","null","html-keyboard-response","377","2.0.0","411304","p159pw1yfrp","bigger","2341","size comparision recognition timed","NA","<p>Correct!</p>","null","","","","","","",""
"","null","html-keyboard-response","378","2.0.0","412306","p159pw1yfrp","bigger","2341","size comparision recognition timed","NA","<div style=""font-size:60px;"">+</div>","null","","","","","","",""
"","970","image-keyboard-response","379","2.0.0","413277","p159pw1yfrp","bigger","2341","size comparision recognition timed","NA","stimuli/14-Inongruent.jpg","m","","","","","right","m","true"
"","null","html-keyboard-response","380","2.0.0","414179","p159pw1yfrp","bigger","2341","size comparision recognition timed","NA","<p>Correct!</p>","null","","","","","","",""
"","null","html-keyboard-response","381","2.0.0","415181","p159pw1yfrp","bigger","2341","size comparision recognition timed","NA","<div style=""font-size:60px;"">+</div>","null","","","","","","",""
"","658","image-keyboard-response","382","2.0.0","415840","p159pw1yfrp","bigger","2341","size comparision recognition timed","NA","stimuli/32-Congruent.jpg","z","","","","","left","z","true"
"","null","html-keyboard-response","383","2.0.0","416741","p159pw1yfrp","bigger","2341","size comparision recognition timed","NA","<p>Correct!</p>","null","","","","","","",""
"","null","html-keyboard-response","384","2.0.0","417743","p159pw1yfrp","bigger","2341","size comparision recognition timed","NA","<div style=""font-size:60px;"">+</div>","null","","","","","","",""
"","636","image-keyboard-response","385","2.0.0","418380","p159pw1yfrp","bigger","2341","size comparision recognition timed","NA","stimuli/20-Congruent.jpg","z","","","","","left","z","true"
"","null","html-keyboard-response","386","2.0.0","419282","p159pw1yfrp","bigger","2341","size comparision recognition timed","NA","<p>Correct!</p>","null","","","","","","",""
"","null","html-keyboard-response","387","2.0.0","420284","p159pw1yfrp","bigger","2341","size comparision recognition timed","NA","<div style=""font-size:60px;"">+</div>","null","","","","","","",""
"","975","image-keyboard-response","388","2.0.0","421261","p159pw1yfrp","bigger","2341","size comparision recognition timed","NA","stimuli/31-Congruent.jpg","z","","","","","left","z","true"
"","null","html-keyboard-response","389","2.0.0","422162","p159pw1yfrp","bigger","2341","size comparision recognition timed","NA","<p>Correct!</p>","null","","","","","","",""
"","null","html-keyboard-response","390","2.0.0","423164","p159pw1yfrp","bigger","2341","size comparision recognition timed","NA","<div style=""font-size:60px;"">+</div>","null","","","","","","",""
"","964","image-keyboard-response","391","2.0.0","424129","p159pw1yfrp","bigger","2341","size comparision recognition timed","NA","stimuli/28-Inongruent.jpg","m","","","","","right","m","true"
"","null","html-keyboard-response","392","2.0.0","425030","p159pw1yfrp","bigger","2341","size comparision recognition timed","NA","<p>Correct!</p>","null","","","","","","",""
"","null","html-keyboard-response","393","2.0.0","426033","p159pw1yfrp","bigger","2341","size comparision recognition timed","NA","<div style=""font-size:60px;"">+</div>","null","","","","","","",""
"","657","image-keyboard-response","394","2.0.0","426690","p159pw1yfrp","bigger","2341","size comparision recognition timed","NA","stimuli/21-Congruent.jpg","z","","","","","left","z","true"
"","null","html-keyboard-response","395","2.0.0","427592","p159pw1yfrp","bigger","2341","size comparision recognition timed","NA","<p>Correct!</p>","null","","","","","","",""
"","null","html-keyboard-response","396","2.0.0","428595","p159pw1yfrp","bigger","2341","size comparision recognition timed","NA","<div style=""font-size:60px;"">+</div>","null","","","","","","",""
"","695","image-keyboard-response","397","2.0.0","429290","p159pw1yfrp","bigger","2341","size comparision recognition timed","NA","stimuli/18-Congruent.jpg","z","","","","","left","z","true"
"","null","html-keyboard-response","398","2.0.0","430192","p159pw1yfrp","bigger","2341","size comparision recognition timed","NA","<p>Correct!</p>","null","","","","","","",""
"","null","html-keyboard-response","399","2.0.0","431194","p159pw1yfrp","bigger","2341","size comparision recognition timed","NA","<div style=""font-size:60px;"">+</div>","null","","","","","","",""
"","757","image-keyboard-response","400","2.0.0","431952","p159pw1yfrp","bigger","2341","size comparision recognition timed","NA","stimuli/33-Inongruent.jpg","z","","","","","right","m","false"
"","null","html-keyboard-response","401","2.0.0","436953","p159pw1yfrp","bigger","2341","size comparision recognition timed","NA","<p>Incorrect.</p><p>Remember to select the <b>bigger</b> image.</p><p>Continuing in 5 seconds...</p>","null","","","","","","",""
"","null","html-keyboard-response","402","2.0.0","437955","p159pw1yfrp","bigger","2341","size comparision recognition timed","NA","<div style=""font-size:60px;"">+</div>","null","","","","","","",""
"","1049","image-keyboard-response","403","2.0.0","439005","p159pw1yfrp","bigger","2341","size comparision recognition timed","NA","stimuli/16-Congruent.jpg","z","","","","","left","z","true"
"","null","html-keyboard-response","404","2.0.0","439906","p159pw1yfrp","bigger","2341","size comparision recognition timed","NA","<p>Correct!</p>","null","","","","","","",""
"","null","html-keyboard-response","405","2.0.0","440907","p159pw1yfrp","bigger","2341","size comparision recognition timed","NA","<div style=""font-size:60px;"">+</div>","null","","","","","","",""
"","2290","image-keyboard-response","406","2.0.0","443197","p159pw1yfrp","bigger","2341","size comparision recognition timed","NA","stimuli/28-Inongruent.jpg","m","","","","","right","m","true"
"","null","html-keyboard-response","407","2.0.0","444098","p159pw1yfrp","bigger","2341","size comparision recognition timed","NA","<p>Correct!</p>","null","","","","","","",""
"","null","html-keyboard-response","408","2.0.0","445100","p159pw1yfrp","bigger","2341","size comparision recognition timed","NA","<div style=""font-size:60px;"">+</div>","null","","","","","","",""
"","1328","image-keyboard-response","409","2.0.0","446429","p159pw1yfrp","bigger","2341","size comparision recognition timed","NA","stimuli/17-Inongruent.jpg","m","","","","","right","m","true"
"","null","html-keyboard-response","410","2.0.0","447331","p159pw1yfrp","bigger","2341","size comparision recognition timed","NA","<p>Correct!</p>","null","","","","","","",""
"","null","html-keyboard-response","411","2.0.0","448334","p159pw1yfrp","bigger","2341","size comparision recognition timed","NA","<div style=""font-size:60px;"">+</div>","null","","","","","","",""
"","744","image-keyboard-response","412","2.0.0","449078","p159pw1yfrp","bigger","2341","size comparision recognition timed","NA","stimuli/36-Inongruent.jpg","m","","","","","right","m","true"
"","null","html-keyboard-response","413","2.0.0","449979","p159pw1yfrp","bigger","2341","size comparision recognition timed","NA","<p>Correct!</p>","null","","","","","","",""
"","null","html-keyboard-response","414","2.0.0","450981","p159pw1yfrp","bigger","2341","size comparision recognition timed","NA","<div style=""font-size:60px;"">+</div>","null","","","","","","",""
"","732","image-keyboard-response","415","2.0.0","451714","p159pw1yfrp","bigger","2341","size comparision recognition timed","NA","stimuli/5-Congruent.jpg","z","","","","","left","z","true"
"","null","html-keyboard-response","416","2.0.0","452616","p159pw1yfrp","bigger","2341","size comparision recognition timed","NA","<p>Correct!</p>","null","","","","","","",""
"","null","html-keyboard-response","417","2.0.0","453619","p159pw1yfrp","bigger","2341","size comparision recognition timed","NA","<div style=""font-size:60px;"">+</div>","null","","","","","","",""
"","1841","image-keyboard-response","418","2.0.0","455460","p159pw1yfrp","bigger","2341","size comparision recognition timed","NA","stimuli/24-Congruent.jpg","z","","","","","left","z","true"
"","null","html-keyboard-response","419","2.0.0","456363","p159pw1yfrp","bigger","2341","size comparision recognition timed","NA","<p>Correct!</p>","null","","","","","","",""
"","null","html-keyboard-response","420","2.0.0","457365","p159pw1yfrp","bigger","2341","size comparision recognition timed","NA","<div style=""font-size:60px;"">+</div>","null","","","","","","",""
"","857","image-keyboard-response","421","2.0.0","458223","p159pw1yfrp","bigger","2341","size comparision recognition timed","NA","stimuli/9-Inongruent.jpg","m","","","","","right","m","true"
"","null","html-keyboard-response","422","2.0.0","459125","p159pw1yfrp","bigger","2341","size comparision recognition timed","NA","<p>Correct!</p>","null","","","","","","",""
"","null","html-keyboard-response","423","2.0.0","460127","p159pw1yfrp","bigger","2341","size comparision recognition timed","NA","<div style=""font-size:60px;"">+</div>","null","","","","","","",""
"","616","image-keyboard-response","424","2.0.0","460744","p159pw1yfrp","bigger","2341","size comparision recognition timed","NA","stimuli/27-Congruent.jpg","z","","","","","left","z","true"
"","null","html-keyboard-response","425","2.0.0","461646","p159pw1yfrp","bigger","2341","size comparision recognition timed","NA","<p>Correct!</p>","null","","","","","","",""
"","null","html-keyboard-response","426","2.0.0","462648","p159pw1yfrp","bigger","2341","size comparision recognition timed","NA","<div style=""font-size:60px;"">+</div>","null","","","","","","",""
"","826","image-keyboard-response","427","2.0.0","463475","p159pw1yfrp","bigger","2341","size comparision recognition timed","NA","stimuli/30-Congruent.jpg","z","","","","","left","z","true"
"","null","html-keyboard-response","428","2.0.0","464377","p159pw1yfrp","bigger","2341","size comparision recognition timed","NA","<p>Correct!</p>","null","","","","","","",""
"","null","html-keyboard-response","429","2.0.0","465379","p159pw1yfrp","bigger","2341","size comparision recognition timed","NA","<div style=""font-size:60px;"">+</div>","null","","","","","","",""
"","529","image-keyboard-response","430","2.0.0","465909","p159pw1yfrp","bigger","2341","size comparision recognition timed","NA","stimuli/16-Congruent.jpg","z","","","","","left","z","true"
"","null","html-keyboard-response","431","2.0.0","466811","p159pw1yfrp","bigger","2341","size comparision recognition timed","NA","<p>Correct!</p>","null","","","","","","",""
"","null","html-keyboard-response","432","2.0.0","467813","p159pw1yfrp","bigger","2341","size comparision recognition timed","NA","<div style=""font-size:60px;"">+</div>","null","","","","","","",""
"","584","image-keyboard-response","433","2.0.0","468398","p159pw1yfrp","bigger","2341","size comparision recognition timed","NA","stimuli/2-Congruent.jpg","z","","","","","left","z","true"
"","null","html-keyboard-response","434","2.0.0","469300","p159pw1yfrp","bigger","2341","size comparision recognition timed","NA","<p>Correct!</p>","null","","","","","","",""
"","null","html-keyboard-response","435","2.0.0","470301","p159pw1yfrp","bigger","2341","size comparision recognition timed","NA","<div style=""font-size:60px;"">+</div>","null","","","","","","",""
"","624","image-keyboard-response","436","2.0.0","470926","p159pw1yfrp","bigger","2341","size comparision recognition timed","NA","stimuli/25-Congruent.jpg","z","","","","","left","z","true"
"","null","html-keyboard-response","437","2.0.0","471827","p159pw1yfrp","bigger","2341","size comparision recognition timed","NA","<p>Correct!</p>","null","","","","","","",""
"","4135","html-keyboard-response","438","2.0.0","475964","p159pw1yfrp","bigger","2341","size comparision recognition timed","NA","<p>You have completed the experiment!</p>
              <p>Your accuracy was: 97.91666666666666%.</p>
              <p>Thank you for participating.</p>
              <p>Press any key to continue.</p>","z","","","","","","",""
"","12825","survey-text","439","2.0.0","488790","p159pw1yfrp","bigger","2341","size comparision recognition timed","NA","","{""participant_thoughts"":""size comparision recognition timed""}","","","","","","",""
"","3936","survey-text","440","2.0.0","492728","p159pw1yfrp","bigger","2341","size comparision recognition timed","NA","","{""participant_difficulties"":""NA""}","","","","","","",""
"","5036","html-keyboard-response","441","2.0.0","497764","p159pw1yfrp","bigger","2341","size comparision recognition timed","NA","<p>The purpose of this experiment is to determine if the real world size of a familiar object is automatically processed when viewed.</p><p>Thank you for participating!</p>"," ","","","","","","",""
