"success","rt","trial_type","trial_index","plugin_version","time_elapsed","random_id","condition","participant","participant_thoughts","participant_difficulties","stimulus","response","timeout","failed_images","failed_audio","failed_video","correct_response","correct_response_key","correct"
"true","1735","fullscreen","0","null","2738","p1do82kqf48","smaller"," squirrel","The purpose of this experiment was to test how accurate and how fast you are able to respond given a change in perspective and size on specific images. ","When selected an incorrect image, when you press another key again it forces you back into the experiment instead of waiting for 5 seconds.","","","","","","","","",""
"","2859","html-keyboard-response","1","2.0.0","5599","p1do82kqf48","smaller"," squirrel","The purpose of this experiment was to test how accurate and how fast you are able to respond given a change in perspective and size on specific images. ","When selected an incorrect image, when you press another key again it forces you back into the experiment instead of waiting for 5 seconds.","Welcome to the Size Stroop experiment. Press any key to begin."," ","","","","","","",""
"","null","html-keyboard-response","2","2.0.0","6603","p1do82kqf48","smaller"," squirrel","The purpose of this experiment was to test how accurate and how fast you are able to respond given a change in perspective and size on specific images. ","When selected an incorrect image, when you press another key again it forces you back into the experiment instead of waiting for 5 seconds.","This trial will be in fullscreen mode.","null","","","","","","",""
"","2268","survey-text","3","2.0.0","8874","p1do82kqf48","smaller"," squirrel","The purpose of this experiment was to test how accurate and how fast you are able to respond given a change in perspective and size on specific images. ","When selected an incorrect image, when you press another key again it forces you back into the experiment instead of waiting for 5 seconds.","","{""participant_id"":"" squirrel""}","","","","","","",""
"","53191","html-keyboard-response","4","2.0.0","62065","p1do82kqf48","smaller"," squirrel","The purpose of this experiment was to test how accurate and how fast you are able to respond given a change in perspective and size on specific images. ","When selected an incorrect image, when you press another key again it forces you back into the experiment instead of waiting for 5 seconds.","<p>In this experiment, two images will appear on the screen. Identify the <strong>smaller</strong> image.</p>
              <p>If the image on the left is smaller, press ""z"". If the image on the right is smaller, press ""m"".</p>
              <p>Press any key to begin.</p>"," ","","","","","","",""
"true","","preload","5","2.0.0","62332","p1do82kqf48","smaller"," squirrel","The purpose of this experiment was to test how accurate and how fast you are able to respond given a change in perspective and size on specific images. ","When selected an incorrect image, when you press another key again it forces you back into the experiment instead of waiting for 5 seconds.","","","false","[]","[]","[]","","",""
"","null","html-keyboard-response","6","2.0.0","63334","p1do82kqf48","smaller"," squirrel","The purpose of this experiment was to test how accurate and how fast you are able to respond given a change in perspective and size on specific images. ","When selected an incorrect image, when you press another key again it forces you back into the experiment instead of waiting for 5 seconds.","<div style=""font-size:60px;"">+</div>","null","","","","","","",""
"","662","image-keyboard-response","7","2.0.0","63999","p1do82kqf48","smaller"," squirrel","The purpose of this experiment was to test how accurate and how fast you are able to respond given a change in perspective and size on specific images. ","When selected an incorrect image, when you press another key again it forces you back into the experiment instead of waiting for 5 seconds.","stimuli/11-Inongruent.jpg","z","","","","","left","z","true"
"","null","html-keyboard-response","8","2.0.0","64902","p1do82kqf48","smaller"," squirrel","The purpose of this experiment was to test how accurate and how fast you are able to respond given a change in perspective and size on specific images. ","When selected an incorrect image, when you press another key again it forces you back into the experiment instead of waiting for 5 seconds.","<p>Correct!</p>","null","","","","","","",""
"","null","html-keyboard-response","9","2.0.0","65905","p1do82kqf48","smaller"," squirrel","The purpose of this experiment was to test how accurate and how fast you are able to respond given a change in perspective and size on specific images. ","When selected an incorrect image, when you press another key again it forces you back into the experiment instead of waiting for 5 seconds.","<div style=""font-size:60px;"">+</div>","null","","","","","","",""
"","570","image-keyboard-response","10","2.0.0","66477","p1do82kqf48","smaller"," squirrel","The purpose of this experiment was to test how accurate and how fast you are able to respond given a change in perspective and size on specific images. ","When selected an incorrect image, when you press another key again it forces you back into the experiment instead of waiting for 5 seconds.","stimuli/13-Congruent.jpg","m","","","","","right","m","true"
"","null","html-keyboard-response","11","2.0.0","67379","p1do82kqf48","smaller"," squirrel","The purpose of this experiment was to test how accurate and how fast you are able to respond given a change in perspective and size on specific images. ","When selected an incorrect image, when you press another key again it forces you back into the experiment instead of waiting for 5 seconds.","<p>Correct!</p>","null","","","","","","",""
"","null","html-keyboard-response","12","2.0.0","68381","p1do82kqf48","smaller"," squirrel","The purpose of this experiment was to test how accurate and how fast you are able to respond given a change in perspective and size on specific images. ","When selected an incorrect image, when you press another key again it forces you back into the experiment instead of waiting for 5 seconds.","<div style=""font-size:60px;"">+</div>","null","","","","","","",""
"","415","image-keyboard-response","13","2.0.0","68798","p1do82kqf48","smaller"," squirrel","The purpose of this experiment was to test how accurate and how fast you are able to respond given a change in perspective and size on specific images. ","When selected an incorrect image, when you press another key again it forces you back into the experiment instead of waiting for 5 seconds.","stimuli/28-Inongruent.jpg","z","","","","","left","z","true"
"","null","html-keyboard-response","14","2.0.0","69700","p1do82kqf48","smaller"," squirrel","The purpose of this experiment was to test how accurate and how fast you are able to respond given a change in perspective and size on specific images. ","When selected an incorrect image, when you press another key again it forces you back into the experiment instead of waiting for 5 seconds.","<p>Correct!</p>","null","","","","","","",""
"","null","html-keyboard-response","15","2.0.0","70703","p1do82kqf48","smaller"," squirrel","The purpose of this experiment was to test how accurate and how fast you are able to respond given a change in perspective and size on specific images. ","When selected an incorrect image, when you press another key again it forces you back into the experiment instead of waiting for 5 seconds.","<div style=""font-size:60px;"">+</div>","null","","","","","","",""
"","690","image-keyboard-response","16","2.0.0","71395","p1do82kqf48","smaller"," squirrel","The purpose of this experiment was to test how accurate and how fast you are able to respond given a change in perspective and size on specific images. ","When selected an incorrect image, when you press another key again it forces you back into the experiment instead of waiting for 5 seconds.","stimuli/13-Congruent.jpg","m","","","","","right","m","true"
"","null","html-keyboard-response","17","2.0.0","72297","p1do82kqf48","smaller"," squirrel","The purpose of this experiment was to test how accurate and how fast you are able to respond given a change in perspective and size on specific images. ","When selected an incorrect image, when you press another key again it forces you back into the experiment instead of waiting for 5 seconds.","<p>Correct!</p>","null","","","","","","",""
"","null","html-keyboard-response","18","2.0.0","73299","p1do82kqf48","smaller"," squirrel","The purpose of this experiment was to test how accurate and how fast you are able to respond given a change in perspective and size on specific images. ","When selected an incorrect image, when you press another key again it forces you back into the experiment instead of waiting for 5 seconds.","<div style=""font-size:60px;"">+</div>","null","","","","","","",""
"","564","image-keyboard-response","19","2.0.0","73865","p1do82kqf48","smaller"," squirrel","The purpose of this experiment was to test how accurate and how fast you are able to respond given a change in perspective and size on specific images. ","When selected an incorrect image, when you press another key again it forces you back into the experiment instead of waiting for 5 seconds.","stimuli/21-Congruent.jpg","m","","","","","right","m","true"
"","null","html-keyboard-response","20","2.0.0","74767","p1do82kqf48","smaller"," squirrel","The purpose of this experiment was to test how accurate and how fast you are able to respond given a change in perspective and size on specific images. ","When selected an incorrect image, when you press another key again it forces you back into the experiment instead of waiting for 5 seconds.","<p>Correct!</p>","null","","","","","","",""
"","null","html-keyboard-response","21","2.0.0","75770","p1do82kqf48","smaller"," squirrel","The purpose of this experiment was to test how accurate and how fast you are able to respond given a change in perspective and size on specific images. ","When selected an incorrect image, when you press another key again it forces you back into the experiment instead of waiting for 5 seconds.","<div style=""font-size:60px;"">+</div>","null","","","","","","",""
"","497","image-keyboard-response","22","2.0.0","76268","p1do82kqf48","smaller"," squirrel","The purpose of this experiment was to test how accurate and how fast you are able to respond given a change in perspective and size on specific images. ","When selected an incorrect image, when you press another key again it forces you back into the experiment instead of waiting for 5 seconds.","stimuli/14-Congruent.jpg","m","","","","","right","m","true"
"","null","html-keyboard-response","23","2.0.0","77171","p1do82kqf48","smaller"," squirrel","The purpose of this experiment was to test how accurate and how fast you are able to respond given a change in perspective and size on specific images. ","When selected an incorrect image, when you press another key again it forces you back into the experiment instead of waiting for 5 seconds.","<p>Correct!</p>","null","","","","","","",""
"","null","html-keyboard-response","24","2.0.0","78173","p1do82kqf48","smaller"," squirrel","The purpose of this experiment was to test how accurate and how fast you are able to respond given a change in perspective and size on specific images. ","When selected an incorrect image, when you press another key again it forces you back into the experiment instead of waiting for 5 seconds.","<div style=""font-size:60px;"">+</div>","null","","","","","","",""
"","463","image-keyboard-response","25","2.0.0","78637","p1do82kqf48","smaller"," squirrel","The purpose of this experiment was to test how accurate and how fast you are able to respond given a change in perspective and size on specific images. ","When selected an incorrect image, when you press another key again it forces you back into the experiment instead of waiting for 5 seconds.","stimuli/35-Inongruent.jpg","z","","","","","left","z","true"
"","null","html-keyboard-response","26","2.0.0","79540","p1do82kqf48","smaller"," squirrel","The purpose of this experiment was to test how accurate and how fast you are able to respond given a change in perspective and size on specific images. ","When selected an incorrect image, when you press another key again it forces you back into the experiment instead of waiting for 5 seconds.","<p>Correct!</p>","null","","","","","","",""
"","null","html-keyboard-response","27","2.0.0","80542","p1do82kqf48","smaller"," squirrel","The purpose of this experiment was to test how accurate and how fast you are able to respond given a change in perspective and size on specific images. ","When selected an incorrect image, when you press another key again it forces you back into the experiment instead of waiting for 5 seconds.","<div style=""font-size:60px;"">+</div>","null","","","","","","",""
"","561","image-keyboard-response","28","2.0.0","81105","p1do82kqf48","smaller"," squirrel","The purpose of this experiment was to test how accurate and how fast you are able to respond given a change in perspective and size on specific images. ","When selected an incorrect image, when you press another key again it forces you back into the experiment instead of waiting for 5 seconds.","stimuli/2-Congruent.jpg","m","","","","","right","m","true"
"","null","html-keyboard-response","29","2.0.0","82007","p1do82kqf48","smaller"," squirrel","The purpose of this experiment was to test how accurate and how fast you are able to respond given a change in perspective and size on specific images. ","When selected an incorrect image, when you press another key again it forces you back into the experiment instead of waiting for 5 seconds.","<p>Correct!</p>","null","","","","","","",""
"","null","html-keyboard-response","30","2.0.0","83010","p1do82kqf48","smaller"," squirrel","The purpose of this experiment was to test how accurate and how fast you are able to respond given a change in perspective and size on specific images. ","When selected an incorrect image, when you press another key again it forces you back into the experiment instead of waiting for 5 seconds.","<div style=""font-size:60px;"">+</div>","null","","","","","","",""
"","545","image-keyboard-response","31","2.0.0","83558","p1do82kqf48","smaller"," squirrel","The purpose of this experiment was to test how accurate and how fast you are able to respond given a change in perspective and size on specific images. ","When selected an incorrect image, when you press another key again it forces you back into the experiment instead of waiting for 5 seconds.","stimuli/27-Inongruent.jpg","z","","","","","left","z","true"
"","null","html-keyboard-response","32","2.0.0","84461","p1do82kqf48","smaller"," squirrel","The purpose of this experiment was to test how accurate and how fast you are able to respond given a change in perspective and size on specific images. ","When selected an incorrect image, when you press another key again it forces you back into the experiment instead of waiting for 5 seconds.","<p>Correct!</p>","null","","","","","","",""
"","null","html-keyboard-response","33","2.0.0","85464","p1do82kqf48","smaller"," squirrel","The purpose of this experiment was to test how accurate and how fast you are able to respond given a change in perspective and size on specific images. ","When selected an incorrect image, when you press another key again it forces you back into the experiment instead of waiting for 5 seconds.","<div style=""font-size:60px;"">+</div>","null","","","","","","",""
"","663","image-keyboard-response","34","2.0.0","86130","p1do82kqf48","smaller"," squirrel","The purpose of this experiment was to test how accurate and how fast you are able to respond given a change in perspective and size on specific images. ","When selected an incorrect image, when you press another key again it forces you back into the experiment instead of waiting for 5 seconds.","stimuli/16-Inongruent.jpg","z","","","","","left","z","true"
"","null","html-keyboard-response","35","2.0.0","87032","p1do82kqf48","smaller"," squirrel","The purpose of this experiment was to test how accurate and how fast you are able to respond given a change in perspective and size on specific images. ","When selected an incorrect image, when you press another key again it forces you back into the experiment instead of waiting for 5 seconds.","<p>Correct!</p>","null","","","","","","",""
"","null","html-keyboard-response","36","2.0.0","88035","p1do82kqf48","smaller"," squirrel","The purpose of this experiment was to test how accurate and how fast you are able to respond given a change in perspective and size on specific images. ","When selected an incorrect image, when you press another key again it forces you back into the experiment instead of waiting for 5 seconds.","<div style=""font-size:60px;"">+</div>","null","","","","","","",""
"","496","image-keyboard-response","37","2.0.0","88532","p1do82kqf48","smaller"," squirrel","The purpose of this experiment was to test how accurate and how fast you are able to respond given a change in perspective and size on specific images. ","When selected an incorrect image, when you press another key again it forces you back into the experiment instead of waiting for 5 seconds.","stimuli/24-Inongruent.jpg","z","","","","","left","z","true"
"","null","html-keyboard-response","38","2.0.0","89435","p1do82kqf48","smaller"," squirrel","The purpose of this experiment was to test how accurate and how fast you are able to respond given a change in perspective and size on specific images. ","When selected an incorrect image, when you press another key again it forces you back into the experiment instead of waiting for 5 seconds.","<p>Correct!</p>","null","","","","","","",""
"","null","html-keyboard-response","39","2.0.0","90437","p1do82kqf48","smaller"," squirrel","The purpose of this experiment was to test how accurate and how fast you are able to respond given a change in perspective and size on specific images. ","When selected an incorrect image, when you press another key again it forces you back into the experiment instead of waiting for 5 seconds.","<div style=""font-size:60px;"">+</div>","null","","","","","","",""
"","388","image-keyboard-response","40","2.0.0","90828","p1do82kqf48","smaller"," squirrel","The purpose of this experiment was to test how accurate and how fast you are able to respond given a change in perspective and size on specific images. ","When selected an incorrect image, when you press another key again it forces you back into the experiment instead of waiting for 5 seconds.","stimuli/14-Congruent.jpg","m","","","","","right","m","true"
"","null","html-keyboard-response","41","2.0.0","91729","p1do82kqf48","smaller"," squirrel","The purpose of this experiment was to test how accurate and how fast you are able to respond given a change in perspective and size on specific images. ","When selected an incorrect image, when you press another key again it forces you back into the experiment instead of waiting for 5 seconds.","<p>Correct!</p>","null","","","","","","",""
"","null","html-keyboard-response","42","2.0.0","92733","p1do82kqf48","smaller"," squirrel","The purpose of this experiment was to test how accurate and how fast you are able to respond given a change in perspective and size on specific images. ","When selected an incorrect image, when you press another key again it forces you back into the experiment instead of waiting for 5 seconds.","<div style=""font-size:60px;"">+</div>","null","","","","","","",""
"","595","image-keyboard-response","43","2.0.0","93331","p1do82kqf48","smaller"," squirrel","The purpose of this experiment was to test how accurate and how fast you are able to respond given a change in perspective and size on specific images. ","When selected an incorrect image, when you press another key again it forces you back into the experiment instead of waiting for 5 seconds.","stimuli/9-Congruent.jpg","m","","","","","right","m","true"
"","null","html-keyboard-response","44","2.0.0","94234","p1do82kqf48","smaller"," squirrel","The purpose of this experiment was to test how accurate and how fast you are able to respond given a change in perspective and size on specific images. ","When selected an incorrect image, when you press another key again it forces you back into the experiment instead of waiting for 5 seconds.","<p>Correct!</p>","null","","","","","","",""
"","null","html-keyboard-response","45","2.0.0","95236","p1do82kqf48","smaller"," squirrel","The purpose of this experiment was to test how accurate and how fast you are able to respond given a change in perspective and size on specific images. ","When selected an incorrect image, when you press another key again it forces you back into the experiment instead of waiting for 5 seconds.","<div style=""font-size:60px;"">+</div>","null","","","","","","",""
"","526","image-keyboard-response","46","2.0.0","95764","p1do82kqf48","smaller"," squirrel","The purpose of this experiment was to test how accurate and how fast you are able to respond given a change in perspective and size on specific images. ","When selected an incorrect image, when you press another key again it forces you back into the experiment instead of waiting for 5 seconds.","stimuli/7-Inongruent.jpg","z","","","","","left","z","true"
"","null","html-keyboard-response","47","2.0.0","96667","p1do82kqf48","smaller"," squirrel","The purpose of this experiment was to test how accurate and how fast you are able to respond given a change in perspective and size on specific images. ","When selected an incorrect image, when you press another key again it forces you back into the experiment instead of waiting for 5 seconds.","<p>Correct!</p>","null","","","","","","",""
"","null","html-keyboard-response","48","2.0.0","97669","p1do82kqf48","smaller"," squirrel","The purpose of this experiment was to test how accurate and how fast you are able to respond given a change in perspective and size on specific images. ","When selected an incorrect image, when you press another key again it forces you back into the experiment instead of waiting for 5 seconds.","<div style=""font-size:60px;"">+</div>","null","","","","","","",""
"","368","image-keyboard-response","49","2.0.0","98039","p1do82kqf48","smaller"," squirrel","The purpose of this experiment was to test how accurate and how fast you are able to respond given a change in perspective and size on specific images. ","When selected an incorrect image, when you press another key again it forces you back into the experiment instead of waiting for 5 seconds.","stimuli/9-Congruent.jpg","m","","","","","right","m","true"
"","null","html-keyboard-response","50","2.0.0","98942","p1do82kqf48","smaller"," squirrel","The purpose of this experiment was to test how accurate and how fast you are able to respond given a change in perspective and size on specific images. ","When selected an incorrect image, when you press another key again it forces you back into the experiment instead of waiting for 5 seconds.","<p>Correct!</p>","null","","","","","","",""
"","null","html-keyboard-response","51","2.0.0","99943","p1do82kqf48","smaller"," squirrel","The purpose of this experiment was to test how accurate and how fast you are able to respond given a change in perspective and size on specific images. ","When selected an incorrect image, when you press another key again it forces you back into the experiment instead of waiting for 5 seconds.","<div style=""font-size:60px;"">+</div>","null","","","","","","",""
"","470","image-keyboard-response","52","2.0.0","100415","p1do82kqf48","smaller"," squirrel","The purpose of this experiment was to test how accurate and how fast you are able to respond given a change in perspective and size on specific images. ","When selected an incorrect image, when you press another key again it forces you back into the experiment instead of waiting for 5 seconds.","stimuli/22-Congruent.jpg","m","","","","","right","m","true"
"","null","html-keyboard-response","53","2.0.0","101318","p1do82kqf48","smaller"," squirrel","The purpose of this experiment was to test how accurate and how fast you are able to respond given a change in perspective and size on specific images. ","When selected an incorrect image, when you press another key again it forces you back into the experiment instead of waiting for 5 seconds.","<p>Correct!</p>","null","","","","","","",""
"","null","html-keyboard-response","54","2.0.0","102321","p1do82kqf48","smaller"," squirrel","The purpose of this experiment was to test how accurate and how fast you are able to respond given a change in perspective and size on specific images. ","When selected an incorrect image, when you press another key again it forces you back into the experiment instead of waiting for 5 seconds.","<div style=""font-size:60px;"">+</div>","null","","","","","","",""
"","339","image-keyboard-response","55","2.0.0","102662","p1do82kqf48","smaller"," squirrel","The purpose of this experiment was to test how accurate and how fast you are able to respond given a change in perspective and size on specific images. ","When selected an incorrect image, when you press another key again it forces you back into the experiment instead of waiting for 5 seconds.","stimuli/17-Inongruent.jpg","z","","","","","left","z","true"
"","null","html-keyboard-response","56","2.0.0","103564","p1do82kqf48","smaller"," squirrel","The purpose of this experiment was to test how accurate and how fast you are able to respond given a change in perspective and size on specific images. ","When selected an incorrect image, when you press another key again it forces you back into the experiment instead of waiting for 5 seconds.","<p>Correct!</p>","null","","","","","","",""
"","null","html-keyboard-response","57","2.0.0","104567","p1do82kqf48","smaller"," squirrel","The purpose of this experiment was to test how accurate and how fast you are able to respond given a change in perspective and size on specific images. ","When selected an incorrect image, when you press another key again it forces you back into the experiment instead of waiting for 5 seconds.","<div style=""font-size:60px;"">+</div>","null","","","","","","",""
"","344","image-keyboard-response","58","2.0.0","104913","p1do82kqf48","smaller"," squirrel","The purpose of this experiment was to test how accurate and how fast you are able to respond given a change in perspective and size on specific images. ","When selected an incorrect image, when you press another key again it forces you back into the experiment instead of waiting for 5 seconds.","stimuli/1-Congruent.jpg","m","","","","","right","m","true"
"","null","html-keyboard-response","59","2.0.0","105816","p1do82kqf48","smaller"," squirrel","The purpose of this experiment was to test how accurate and how fast you are able to respond given a change in perspective and size on specific images. ","When selected an incorrect image, when you press another key again it forces you back into the experiment instead of waiting for 5 seconds.","<p>Correct!</p>","null","","","","","","",""
"","null","html-keyboard-response","60","2.0.0","106818","p1do82kqf48","smaller"," squirrel","The purpose of this experiment was to test how accurate and how fast you are able to respond given a change in perspective and size on specific images. ","When selected an incorrect image, when you press another key again it forces you back into the experiment instead of waiting for 5 seconds.","<div style=""font-size:60px;"">+</div>","null","","","","","","",""
"","413","image-keyboard-response","61","2.0.0","107232","p1do82kqf48","smaller"," squirrel","The purpose of this experiment was to test how accurate and how fast you are able to respond given a change in perspective and size on specific images. ","When selected an incorrect image, when you press another key again it forces you back into the experiment instead of waiting for 5 seconds.","stimuli/27-Congruent.jpg","m","","","","","right","m","true"
"","null","html-keyboard-response","62","2.0.0","108134","p1do82kqf48","smaller"," squirrel","The purpose of this experiment was to test how accurate and how fast you are able to respond given a change in perspective and size on specific images. ","When selected an incorrect image, when you press another key again it forces you back into the experiment instead of waiting for 5 seconds.","<p>Correct!</p>","null","","","","","","",""
"","null","html-keyboard-response","63","2.0.0","109137","p1do82kqf48","smaller"," squirrel","The purpose of this experiment was to test how accurate and how fast you are able to respond given a change in perspective and size on specific images. ","When selected an incorrect image, when you press another key again it forces you back into the experiment instead of waiting for 5 seconds.","<div style=""font-size:60px;"">+</div>","null","","","","","","",""
"","407","image-keyboard-response","64","2.0.0","109547","p1do82kqf48","smaller"," squirrel","The purpose of this experiment was to test how accurate and how fast you are able to respond given a change in perspective and size on specific images. ","When selected an incorrect image, when you press another key again it forces you back into the experiment instead of waiting for 5 seconds.","stimuli/33-Inongruent.jpg","z","","","","","left","z","true"
"","null","html-keyboard-response","65","2.0.0","110449","p1do82kqf48","smaller"," squirrel","The purpose of this experiment was to test how accurate and how fast you are able to respond given a change in perspective and size on specific images. ","When selected an incorrect image, when you press another key again it forces you back into the experiment instead of waiting for 5 seconds.","<p>Correct!</p>","null","","","","","","",""
"","null","html-keyboard-response","66","2.0.0","111454","p1do82kqf48","smaller"," squirrel","The purpose of this experiment was to test how accurate and how fast you are able to respond given a change in perspective and size on specific images. ","When selected an incorrect image, when you press another key again it forces you back into the experiment instead of waiting for 5 seconds.","<div style=""font-size:60px;"">+</div>","null","","","","","","",""
"","606","image-keyboard-response","67","2.0.0","112062","p1do82kqf48","smaller"," squirrel","The purpose of this experiment was to test how accurate and how fast you are able to respond given a change in perspective and size on specific images. ","When selected an incorrect image, when you press another key again it forces you back into the experiment instead of waiting for 5 seconds.","stimuli/25-Inongruent.jpg","z","","","","","left","z","true"
"","null","html-keyboard-response","68","2.0.0","112966","p1do82kqf48","smaller"," squirrel","The purpose of this experiment was to test how accurate and how fast you are able to respond given a change in perspective and size on specific images. ","When selected an incorrect image, when you press another key again it forces you back into the experiment instead of waiting for 5 seconds.","<p>Correct!</p>","null","","","","","","",""
"","null","html-keyboard-response","69","2.0.0","113969","p1do82kqf48","smaller"," squirrel","The purpose of this experiment was to test how accurate and how fast you are able to respond given a change in perspective and size on specific images. ","When selected an incorrect image, when you press another key again it forces you back into the experiment instead of waiting for 5 seconds.","<div style=""font-size:60px;"">+</div>","null","","","","","","",""
"","402","image-keyboard-response","70","2.0.0","114373","p1do82kqf48","smaller"," squirrel","The purpose of this experiment was to test how accurate and how fast you are able to respond given a change in perspective and size on specific images. ","When selected an incorrect image, when you press another key again it forces you back into the experiment instead of waiting for 5 seconds.","stimuli/4-Inongruent.jpg","z","","","","","left","z","true"
"","null","html-keyboard-response","71","2.0.0","115277","p1do82kqf48","smaller"," squirrel","The purpose of this experiment was to test how accurate and how fast you are able to respond given a change in perspective and size on specific images. ","When selected an incorrect image, when you press another key again it forces you back into the experiment instead of waiting for 5 seconds.","<p>Correct!</p>","null","","","","","","",""
"","null","html-keyboard-response","72","2.0.0","116280","p1do82kqf48","smaller"," squirrel","The purpose of this experiment was to test how accurate and how fast you are able to respond given a change in perspective and size on specific images. ","When selected an incorrect image, when you press another key again it forces you back into the experiment instead of waiting for 5 seconds.","<div style=""font-size:60px;"">+</div>","null","","","","","","",""
"","403","image-keyboard-response","73","2.0.0","116685","p1do82kqf48","smaller"," squirrel","The purpose of this experiment was to test how accurate and how fast you are able to respond given a change in perspective and size on specific images. ","When selected an incorrect image, when you press another key again it forces you back into the experiment instead of waiting for 5 seconds.","stimuli/7-Congruent.jpg","m","","","","","right","m","true"
"","null","html-keyboard-response","74","2.0.0","117588","p1do82kqf48","smaller"," squirrel","The purpose of this experiment was to test how accurate and how fast you are able to respond given a change in perspective and size on specific images. ","When selected an incorrect image, when you press another key again it forces you back into the experiment instead of waiting for 5 seconds.","<p>Correct!</p>","null","","","","","","",""
"","null","html-keyboard-response","75","2.0.0","118591","p1do82kqf48","smaller"," squirrel","The purpose of this experiment was to test how accurate and how fast you are able to respond given a change in perspective and size on specific images. ","When selected an incorrect image, when you press another key again it forces you back into the experiment instead of waiting for 5 seconds.","<div style=""font-size:60px;"">+</div>","null","","","","","","",""
"","407","image-keyboard-response","76","2.0.0","119002","p1do82kqf48","smaller"," squirrel","The purpose of this experiment was to test how accurate and how fast you are able to respond given a change in perspective and size on specific images. ","When selected an incorrect image, when you press another key again it forces you back into the experiment instead of waiting for 5 seconds.","stimuli/12-Congruent.jpg","m","","","","","right","m","true"
"","null","html-keyboard-response","77","2.0.0","119905","p1do82kqf48","smaller"," squirrel","The purpose of this experiment was to test how accurate and how fast you are able to respond given a change in perspective and size on specific images. ","When selected an incorrect image, when you press another key again it forces you back into the experiment instead of waiting for 5 seconds.","<p>Correct!</p>","null","","","","","","",""
"","null","html-keyboard-response","78","2.0.0","120907","p1do82kqf48","smaller"," squirrel","The purpose of this experiment was to test how accurate and how fast you are able to respond given a change in perspective and size on specific images. ","When selected an incorrect image, when you press another key again it forces you back into the experiment instead of waiting for 5 seconds.","<div style=""font-size:60px;"">+</div>","null","","","","","","",""
"","357","image-keyboard-response","79","2.0.0","121270","p1do82kqf48","smaller"," squirrel","The purpose of this experiment was to test how accurate and how fast you are able to respond given a change in perspective and size on specific images. ","When selected an incorrect image, when you press another key again it forces you back into the experiment instead of waiting for 5 seconds.","stimuli/10-Congruent.jpg","m","","","","","right","m","true"
"","null","html-keyboard-response","80","2.0.0","122172","p1do82kqf48","smaller"," squirrel","The purpose of this experiment was to test how accurate and how fast you are able to respond given a change in perspective and size on specific images. ","When selected an incorrect image, when you press another key again it forces you back into the experiment instead of waiting for 5 seconds.","<p>Correct!</p>","null","","","","","","",""
"","null","html-keyboard-response","81","2.0.0","123174","p1do82kqf48","smaller"," squirrel","The purpose of this experiment was to test how accurate and how fast you are able to respond given a change in perspective and size on specific images. ","When selected an incorrect image, when you press another key again it forces you back into the experiment instead of waiting for 5 seconds.","<div style=""font-size:60px;"">+</div>","null","","","","","","",""
"","383","image-keyboard-response","82","2.0.0","123561","p1do82kqf48","smaller"," squirrel","The purpose of this experiment was to test how accurate and how fast you are able to respond given a change in perspective and size on specific images. ","When selected an incorrect image, when you press another key again it forces you back into the experiment instead of waiting for 5 seconds.","stimuli/3-Inongruent.jpg","z","","","","","left","z","true"
"","null","html-keyboard-response","83","2.0.0","124463","p1do82kqf48","smaller"," squirrel","The purpose of this experiment was to test how accurate and how fast you are able to respond given a change in perspective and size on specific images. ","When selected an incorrect image, when you press another key again it forces you back into the experiment instead of waiting for 5 seconds.","<p>Correct!</p>","null","","","","","","",""
"","null","html-keyboard-response","84","2.0.0","125466","p1do82kqf48","smaller"," squirrel","The purpose of this experiment was to test how accurate and how fast you are able to respond given a change in perspective and size on specific images. ","When selected an incorrect image, when you press another key again it forces you back into the experiment instead of waiting for 5 seconds.","<div style=""font-size:60px;"">+</div>","null","","","","","","",""
"","416","image-keyboard-response","85","2.0.0","125885","p1do82kqf48","smaller"," squirrel","The purpose of this experiment was to test how accurate and how fast you are able to respond given a change in perspective and size on specific images. ","When selected an incorrect image, when you press another key again it forces you back into the experiment instead of waiting for 5 seconds.","stimuli/30-Inongruent.jpg","z","","","","","left","z","true"
"","null","html-keyboard-response","86","2.0.0","126788","p1do82kqf48","smaller"," squirrel","The purpose of this experiment was to test how accurate and how fast you are able to respond given a change in perspective and size on specific images. ","When selected an incorrect image, when you press another key again it forces you back into the experiment instead of waiting for 5 seconds.","<p>Correct!</p>","null","","","","","","",""
"","null","html-keyboard-response","87","2.0.0","127791","p1do82kqf48","smaller"," squirrel","The purpose of this experiment was to test how accurate and how fast you are able to respond given a change in perspective and size on specific images. ","When selected an incorrect image, when you press another key again it forces you back into the experiment instead of waiting for 5 seconds.","<div style=""font-size:60px;"">+</div>","null","","","","","","",""
"","340","image-keyboard-response","88","2.0.0","128133","p1do82kqf48","smaller"," squirrel","The purpose of this experiment was to test how accurate and how fast you are able to respond given a change in perspective and size on specific images. ","When selected an incorrect image, when you press another key again it forces you back into the experiment instead of waiting for 5 seconds.","stimuli/22-Congruent.jpg","m","","","","","right","m","true"
"","null","html-keyboard-response","89","2.0.0","129035","p1do82kqf48","smaller"," squirrel","The purpose of this experiment was to test how accurate and how fast you are able to respond given a change in perspective and size on specific images. ","When selected an incorrect image, when you press another key again it forces you back into the experiment instead of waiting for 5 seconds.","<p>Correct!</p>","null","","","","","","",""
"","null","html-keyboard-response","90","2.0.0","130040","p1do82kqf48","smaller"," squirrel","The purpose of this experiment was to test how accurate and how fast you are able to respond given a change in perspective and size on specific images. ","When selected an incorrect image, when you press another key again it forces you back into the experiment instead of waiting for 5 seconds.","<div style=""font-size:60px;"">+</div>","null","","","","","","",""
"","571","image-keyboard-response","91","2.0.0","130613","p1do82kqf48","smaller"," squirrel","The purpose of this experiment was to test how accurate and how fast you are able to respond given a change in perspective and size on specific images. ","When selected an incorrect image, when you press another key again it forces you back into the experiment instead of waiting for 5 seconds.","stimuli/29-Congruent.jpg","m","","","","","right","m","true"
"","null","html-keyboard-response","92","2.0.0","131516","p1do82kqf48","smaller"," squirrel","The purpose of this experiment was to test how accurate and how fast you are able to respond given a change in perspective and size on specific images. ","When selected an incorrect image, when you press another key again it forces you back into the experiment instead of waiting for 5 seconds.","<p>Correct!</p>","null","","","","","","",""
"","null","html-keyboard-response","93","2.0.0","132519","p1do82kqf48","smaller"," squirrel","The purpose of this experiment was to test how accurate and how fast you are able to respond given a change in perspective and size on specific images. ","When selected an incorrect image, when you press another key again it forces you back into the experiment instead of waiting for 5 seconds.","<div style=""font-size:60px;"">+</div>","null","","","","","","",""
"","384","image-keyboard-response","94","2.0.0","132905","p1do82kqf48","smaller"," squirrel","The purpose of this experiment was to test how accurate and how fast you are able to respond given a change in perspective and size on specific images. ","When selected an incorrect image, when you press another key again it forces you back into the experiment instead of waiting for 5 seconds.","stimuli/31-Congruent.jpg","m","","","","","right","m","true"
"","null","html-keyboard-response","95","2.0.0","133807","p1do82kqf48","smaller"," squirrel","The purpose of this experiment was to test how accurate and how fast you are able to respond given a change in perspective and size on specific images. ","When selected an incorrect image, when you press another key again it forces you back into the experiment instead of waiting for 5 seconds.","<p>Correct!</p>","null","","","","","","",""
"","null","html-keyboard-response","96","2.0.0","134810","p1do82kqf48","smaller"," squirrel","The purpose of this experiment was to test how accurate and how fast you are able to respond given a change in perspective and size on specific images. ","When selected an incorrect image, when you press another key again it forces you back into the experiment instead of waiting for 5 seconds.","<div style=""font-size:60px;"">+</div>","null","","","","","","",""
"","348","image-keyboard-response","97","2.0.0","135160","p1do82kqf48","smaller"," squirrel","The purpose of this experiment was to test how accurate and how fast you are able to respond given a change in perspective and size on specific images. ","When selected an incorrect image, when you press another key again it forces you back into the experiment instead of waiting for 5 seconds.","stimuli/5-Inongruent.jpg","z","","","","","left","z","true"
"","null","html-keyboard-response","98","2.0.0","136063","p1do82kqf48","smaller"," squirrel","The purpose of this experiment was to test how accurate and how fast you are able to respond given a change in perspective and size on specific images. ","When selected an incorrect image, when you press another key again it forces you back into the experiment instead of waiting for 5 seconds.","<p>Correct!</p>","null","","","","","","",""
"","null","html-keyboard-response","99","2.0.0","137065","p1do82kqf48","smaller"," squirrel","The purpose of this experiment was to test how accurate and how fast you are able to respond given a change in perspective and size on specific images. ","When selected an incorrect image, when you press another key again it forces you back into the experiment instead of waiting for 5 seconds.","<div style=""font-size:60px;"">+</div>","null","","","","","","",""
"","368","image-keyboard-response","100","2.0.0","137435","p1do82kqf48","smaller"," squirrel","The purpose of this experiment was to test how accurate and how fast you are able to respond given a change in perspective and size on specific images. ","When selected an incorrect image, when you press another key again it forces you back into the experiment instead of waiting for 5 seconds.","stimuli/12-Inongruent.jpg","z","","","","","left","z","true"
"","null","html-keyboard-response","101","2.0.0","138338","p1do82kqf48","smaller"," squirrel","The purpose of this experiment was to test how accurate and how fast you are able to respond given a change in perspective and size on specific images. ","When selected an incorrect image, when you press another key again it forces you back into the experiment instead of waiting for 5 seconds.","<p>Correct!</p>","null","","","","","","",""
"","null","html-keyboard-response","102","2.0.0","139341","p1do82kqf48","smaller"," squirrel","The purpose of this experiment was to test how accurate and how fast you are able to respond given a change in perspective and size on specific images. ","When selected an incorrect image, when you press another key again it forces you back into the experiment instead of waiting for 5 seconds.","<div style=""font-size:60px;"">+</div>","null","","","","","","",""
"","360","image-keyboard-response","103","2.0.0","139703","p1do82kqf48","smaller"," squirrel","The purpose of this experiment was to test how accurate and how fast you are able to respond given a change in perspective and size on specific images. ","When selected an incorrect image, when you press another key again it forces you back into the experiment instead of waiting for 5 seconds.","stimuli/26-Congruent.jpg","m","","","","","right","m","true"
"","null","html-keyboard-response","104","2.0.0","140605","p1do82kqf48","smaller"," squirrel","The purpose of this experiment was to test how accurate and how fast you are able to respond given a change in perspective and size on specific images. ","When selected an incorrect image, when you press another key again it forces you back into the experiment instead of waiting for 5 seconds.","<p>Correct!</p>","null","","","","","","",""
"","null","html-keyboard-response","105","2.0.0","141608","p1do82kqf48","smaller"," squirrel","The purpose of this experiment was to test how accurate and how fast you are able to respond given a change in perspective and size on specific images. ","When selected an incorrect image, when you press another key again it forces you back into the experiment instead of waiting for 5 seconds.","<div style=""font-size:60px;"">+</div>","null","","","","","","",""
"","392","image-keyboard-response","106","2.0.0","142002","p1do82kqf48","smaller"," squirrel","The purpose of this experiment was to test how accurate and how fast you are able to respond given a change in perspective and size on specific images. ","When selected an incorrect image, when you press another key again it forces you back into the experiment instead of waiting for 5 seconds.","stimuli/32-Congruent.jpg","m","","","","","right","m","true"
"","null","html-keyboard-response","107","2.0.0","142904","p1do82kqf48","smaller"," squirrel","The purpose of this experiment was to test how accurate and how fast you are able to respond given a change in perspective and size on specific images. ","When selected an incorrect image, when you press another key again it forces you back into the experiment instead of waiting for 5 seconds.","<p>Correct!</p>","null","","","","","","",""
"","null","html-keyboard-response","108","2.0.0","143907","p1do82kqf48","smaller"," squirrel","The purpose of this experiment was to test how accurate and how fast you are able to respond given a change in perspective and size on specific images. ","When selected an incorrect image, when you press another key again it forces you back into the experiment instead of waiting for 5 seconds.","<div style=""font-size:60px;"">+</div>","null","","","","","","",""
"","402","image-keyboard-response","109","2.0.0","144311","p1do82kqf48","smaller"," squirrel","The purpose of this experiment was to test how accurate and how fast you are able to respond given a change in perspective and size on specific images. ","When selected an incorrect image, when you press another key again it forces you back into the experiment instead of waiting for 5 seconds.","stimuli/8-Congruent.jpg","m","","","","","right","m","true"
"","null","html-keyboard-response","110","2.0.0","145213","p1do82kqf48","smaller"," squirrel","The purpose of this experiment was to test how accurate and how fast you are able to respond given a change in perspective and size on specific images. ","When selected an incorrect image, when you press another key again it forces you back into the experiment instead of waiting for 5 seconds.","<p>Correct!</p>","null","","","","","","",""
"","null","html-keyboard-response","111","2.0.0","146216","p1do82kqf48","smaller"," squirrel","The purpose of this experiment was to test how accurate and how fast you are able to respond given a change in perspective and size on specific images. ","When selected an incorrect image, when you press another key again it forces you back into the experiment instead of waiting for 5 seconds.","<div style=""font-size:60px;"">+</div>","null","","","","","","",""
"","309","image-keyboard-response","112","2.0.0","146527","p1do82kqf48","smaller"," squirrel","The purpose of this experiment was to test how accurate and how fast you are able to respond given a change in perspective and size on specific images. ","When selected an incorrect image, when you press another key again it forces you back into the experiment instead of waiting for 5 seconds.","stimuli/20-Congruent.jpg","m","","","","","right","m","true"
"","null","html-keyboard-response","113","2.0.0","147430","p1do82kqf48","smaller"," squirrel","The purpose of this experiment was to test how accurate and how fast you are able to respond given a change in perspective and size on specific images. ","When selected an incorrect image, when you press another key again it forces you back into the experiment instead of waiting for 5 seconds.","<p>Correct!</p>","null","","","","","","",""
"","null","html-keyboard-response","114","2.0.0","148433","p1do82kqf48","smaller"," squirrel","The purpose of this experiment was to test how accurate and how fast you are able to respond given a change in perspective and size on specific images. ","When selected an incorrect image, when you press another key again it forces you back into the experiment instead of waiting for 5 seconds.","<div style=""font-size:60px;"">+</div>","null","","","","","","",""
"","400","image-keyboard-response","115","2.0.0","148834","p1do82kqf48","smaller"," squirrel","The purpose of this experiment was to test how accurate and how fast you are able to respond given a change in perspective and size on specific images. ","When selected an incorrect image, when you press another key again it forces you back into the experiment instead of waiting for 5 seconds.","stimuli/2-Inongruent.jpg","z","","","","","left","z","true"
"","null","html-keyboard-response","116","2.0.0","149737","p1do82kqf48","smaller"," squirrel","The purpose of this experiment was to test how accurate and how fast you are able to respond given a change in perspective and size on specific images. ","When selected an incorrect image, when you press another key again it forces you back into the experiment instead of waiting for 5 seconds.","<p>Correct!</p>","null","","","","","","",""
"","null","html-keyboard-response","117","2.0.0","150740","p1do82kqf48","smaller"," squirrel","The purpose of this experiment was to test how accurate and how fast you are able to respond given a change in perspective and size on specific images. ","When selected an incorrect image, when you press another key again it forces you back into the experiment instead of waiting for 5 seconds.","<div style=""font-size:60px;"">+</div>","null","","","","","","",""
"","361","image-keyboard-response","118","2.0.0","151103","p1do82kqf48","smaller"," squirrel","The purpose of this experiment was to test how accurate and how fast you are able to respond given a change in perspective and size on specific images. ","When selected an incorrect image, when you press another key again it forces you back into the experiment instead of waiting for 5 seconds.","stimuli/1-Congruent.jpg","m","","","","","right","m","true"
"","null","html-keyboard-response","119","2.0.0","152009","p1do82kqf48","smaller"," squirrel","The purpose of this experiment was to test how accurate and how fast you are able to respond given a change in perspective and size on specific images. ","When selected an incorrect image, when you press another key again it forces you back into the experiment instead of waiting for 5 seconds.","<p>Correct!</p>","null","","","","","","",""
"","null","html-keyboard-response","120","2.0.0","153012","p1do82kqf48","smaller"," squirrel","The purpose of this experiment was to test how accurate and how fast you are able to respond given a change in perspective and size on specific images. ","When selected an incorrect image, when you press another key again it forces you back into the experiment instead of waiting for 5 seconds.","<div style=""font-size:60px;"">+</div>","null","","","","","","",""
"","435","image-keyboard-response","121","2.0.0","153448","p1do82kqf48","smaller"," squirrel","The purpose of this experiment was to test how accurate and how fast you are able to respond given a change in perspective and size on specific images. ","When selected an incorrect image, when you press another key again it forces you back into the experiment instead of waiting for 5 seconds.","stimuli/28-Congruent.jpg","m","","","","","right","m","true"
"","null","html-keyboard-response","122","2.0.0","154351","p1do82kqf48","smaller"," squirrel","The purpose of this experiment was to test how accurate and how fast you are able to respond given a change in perspective and size on specific images. ","When selected an incorrect image, when you press another key again it forces you back into the experiment instead of waiting for 5 seconds.","<p>Correct!</p>","null","","","","","","",""
"","null","html-keyboard-response","123","2.0.0","155356","p1do82kqf48","smaller"," squirrel","The purpose of this experiment was to test how accurate and how fast you are able to respond given a change in perspective and size on specific images. ","When selected an incorrect image, when you press another key again it forces you back into the experiment instead of waiting for 5 seconds.","<div style=""font-size:60px;"">+</div>","null","","","","","","",""
"","471","image-keyboard-response","124","2.0.0","155828","p1do82kqf48","smaller"," squirrel","The purpose of this experiment was to test how accurate and how fast you are able to respond given a change in perspective and size on specific images. ","When selected an incorrect image, when you press another key again it forces you back into the experiment instead of waiting for 5 seconds.","stimuli/25-Inongruent.jpg","z","","","","","left","z","true"
"","null","html-keyboard-response","125","2.0.0","156733","p1do82kqf48","smaller"," squirrel","The purpose of this experiment was to test how accurate and how fast you are able to respond given a change in perspective and size on specific images. ","When selected an incorrect image, when you press another key again it forces you back into the experiment instead of waiting for 5 seconds.","<p>Correct!</p>","null","","","","","","",""
"","null","html-keyboard-response","126","2.0.0","157736","p1do82kqf48","smaller"," squirrel","The purpose of this experiment was to test how accurate and how fast you are able to respond given a change in perspective and size on specific images. ","When selected an incorrect image, when you press another key again it forces you back into the experiment instead of waiting for 5 seconds.","<div style=""font-size:60px;"">+</div>","null","","","","","","",""
"","661","image-keyboard-response","127","2.0.0","158399","p1do82kqf48","smaller"," squirrel","The purpose of this experiment was to test how accurate and how fast you are able to respond given a change in perspective and size on specific images. ","When selected an incorrect image, when you press another key again it forces you back into the experiment instead of waiting for 5 seconds.","stimuli/18-Inongruent.jpg","z","","","","","left","z","true"
"","null","html-keyboard-response","128","2.0.0","159301","p1do82kqf48","smaller"," squirrel","The purpose of this experiment was to test how accurate and how fast you are able to respond given a change in perspective and size on specific images. ","When selected an incorrect image, when you press another key again it forces you back into the experiment instead of waiting for 5 seconds.","<p>Correct!</p>","null","","","","","","",""
"","null","html-keyboard-response","129","2.0.0","160304","p1do82kqf48","smaller"," squirrel","The purpose of this experiment was to test how accurate and how fast you are able to respond given a change in perspective and size on specific images. ","When selected an incorrect image, when you press another key again it forces you back into the experiment instead of waiting for 5 seconds.","<div style=""font-size:60px;"">+</div>","null","","","","","","",""
"","479","image-keyboard-response","130","2.0.0","160787","p1do82kqf48","smaller"," squirrel","The purpose of this experiment was to test how accurate and how fast you are able to respond given a change in perspective and size on specific images. ","When selected an incorrect image, when you press another key again it forces you back into the experiment instead of waiting for 5 seconds.","stimuli/14-Inongruent.jpg","z","","","","","left","z","true"
"","null","html-keyboard-response","131","2.0.0","161690","p1do82kqf48","smaller"," squirrel","The purpose of this experiment was to test how accurate and how fast you are able to respond given a change in perspective and size on specific images. ","When selected an incorrect image, when you press another key again it forces you back into the experiment instead of waiting for 5 seconds.","<p>Correct!</p>","null","","","","","","",""
"","null","html-keyboard-response","132","2.0.0","162692","p1do82kqf48","smaller"," squirrel","The purpose of this experiment was to test how accurate and how fast you are able to respond given a change in perspective and size on specific images. ","When selected an incorrect image, when you press another key again it forces you back into the experiment instead of waiting for 5 seconds.","<div style=""font-size:60px;"">+</div>","null","","","","","","",""
"","526","image-keyboard-response","133","2.0.0","163220","p1do82kqf48","smaller"," squirrel","The purpose of this experiment was to test how accurate and how fast you are able to respond given a change in perspective and size on specific images. ","When selected an incorrect image, when you press another key again it forces you back into the experiment instead of waiting for 5 seconds.","stimuli/2-Congruent.jpg","m","","","","","right","m","true"
"","null","html-keyboard-response","134","2.0.0","164123","p1do82kqf48","smaller"," squirrel","The purpose of this experiment was to test how accurate and how fast you are able to respond given a change in perspective and size on specific images. ","When selected an incorrect image, when you press another key again it forces you back into the experiment instead of waiting for 5 seconds.","<p>Correct!</p>","null","","","","","","",""
"","null","html-keyboard-response","135","2.0.0","165125","p1do82kqf48","smaller"," squirrel","The purpose of this experiment was to test how accurate and how fast you are able to respond given a change in perspective and size on specific images. ","When selected an incorrect image, when you press another key again it forces you back into the experiment instead of waiting for 5 seconds.","<div style=""font-size:60px;"">+</div>","null","","","","","","",""
"","735","image-keyboard-response","136","2.0.0","165862","p1do82kqf48","smaller"," squirrel","The purpose of this experiment was to test how accurate and how fast you are able to respond given a change in perspective and size on specific images. ","When selected an incorrect image, when you press another key again it forces you back into the experiment instead of waiting for 5 seconds.","stimuli/22-Inongruent.jpg","z","","","","","left","z","true"
"","null","html-keyboard-response","137","2.0.0","166764","p1do82kqf48","smaller"," squirrel","The purpose of this experiment was to test how accurate and how fast you are able to respond given a change in perspective and size on specific images. ","When selected an incorrect image, when you press another key again it forces you back into the experiment instead of waiting for 5 seconds.","<p>Correct!</p>","null","","","","","","",""
"","null","html-keyboard-response","138","2.0.0","167769","p1do82kqf48","smaller"," squirrel","The purpose of this experiment was to test how accurate and how fast you are able to respond given a change in perspective and size on specific images. ","When selected an incorrect image, when you press another key again it forces you back into the experiment instead of waiting for 5 seconds.","<div style=""font-size:60px;"">+</div>","null","","","","","","",""
"","569","image-keyboard-response","139","2.0.0","168340","p1do82kqf48","smaller"," squirrel","The purpose of this experiment was to test how accurate and how fast you are able to respond given a change in perspective and size on specific images. ","When selected an incorrect image, when you press another key again it forces you back into the experiment instead of waiting for 5 seconds.","stimuli/16-Congruent.jpg","m","","","","","right","m","true"
"","null","html-keyboard-response","140","2.0.0","169243","p1do82kqf48","smaller"," squirrel","The purpose of this experiment was to test how accurate and how fast you are able to respond given a change in perspective and size on specific images. ","When selected an incorrect image, when you press another key again it forces you back into the experiment instead of waiting for 5 seconds.","<p>Correct!</p>","null","","","","","","",""
"","null","html-keyboard-response","141","2.0.0","170245","p1do82kqf48","smaller"," squirrel","The purpose of this experiment was to test how accurate and how fast you are able to respond given a change in perspective and size on specific images. ","When selected an incorrect image, when you press another key again it forces you back into the experiment instead of waiting for 5 seconds.","<div style=""font-size:60px;"">+</div>","null","","","","","","",""
"","632","image-keyboard-response","142","2.0.0","170879","p1do82kqf48","smaller"," squirrel","The purpose of this experiment was to test how accurate and how fast you are able to respond given a change in perspective and size on specific images. ","When selected an incorrect image, when you press another key again it forces you back into the experiment instead of waiting for 5 seconds.","stimuli/10-Inongruent.jpg","z","","","","","left","z","true"
"","null","html-keyboard-response","143","2.0.0","171782","p1do82kqf48","smaller"," squirrel","The purpose of this experiment was to test how accurate and how fast you are able to respond given a change in perspective and size on specific images. ","When selected an incorrect image, when you press another key again it forces you back into the experiment instead of waiting for 5 seconds.","<p>Correct!</p>","null","","","","","","",""
"","null","html-keyboard-response","144","2.0.0","172785","p1do82kqf48","smaller"," squirrel","The purpose of this experiment was to test how accurate and how fast you are able to respond given a change in perspective and size on specific images. ","When selected an incorrect image, when you press another key again it forces you back into the experiment instead of waiting for 5 seconds.","<div style=""font-size:60px;"">+</div>","null","","","","","","",""
"","582","image-keyboard-response","145","2.0.0","173370","p1do82kqf48","smaller"," squirrel","The purpose of this experiment was to test how accurate and how fast you are able to respond given a change in perspective and size on specific images. ","When selected an incorrect image, when you press another key again it forces you back into the experiment instead of waiting for 5 seconds.","stimuli/17-Inongruent.jpg","z","","","","","left","z","true"
"","null","html-keyboard-response","146","2.0.0","174273","p1do82kqf48","smaller"," squirrel","The purpose of this experiment was to test how accurate and how fast you are able to respond given a change in perspective and size on specific images. ","When selected an incorrect image, when you press another key again it forces you back into the experiment instead of waiting for 5 seconds.","<p>Correct!</p>","null","","","","","","",""
"","null","html-keyboard-response","147","2.0.0","175276","p1do82kqf48","smaller"," squirrel","The purpose of this experiment was to test how accurate and how fast you are able to respond given a change in perspective and size on specific images. ","When selected an incorrect image, when you press another key again it forces you back into the experiment instead of waiting for 5 seconds.","<div style=""font-size:60px;"">+</div>","null","","","","","","",""
"","502","image-keyboard-response","148","2.0.0","175779","p1do82kqf48","smaller"," squirrel","The purpose of this experiment was to test how accurate and how fast you are able to respond given a change in perspective and size on specific images. ","When selected an incorrect image, when you press another key again it forces you back into the experiment instead of waiting for 5 seconds.","stimuli/33-Inongruent.jpg","z","","","","","left","z","true"
"","null","html-keyboard-response","149","2.0.0","176682","p1do82kqf48","smaller"," squirrel","The purpose of this experiment was to test how accurate and how fast you are able to respond given a change in perspective and size on specific images. ","When selected an incorrect image, when you press another key again it forces you back into the experiment instead of waiting for 5 seconds.","<p>Correct!</p>","null","","","","","","",""
"","null","html-keyboard-response","150","2.0.0","177685","p1do82kqf48","smaller"," squirrel","The purpose of this experiment was to test how accurate and how fast you are able to respond given a change in perspective and size on specific images. ","When selected an incorrect image, when you press another key again it forces you back into the experiment instead of waiting for 5 seconds.","<div style=""font-size:60px;"">+</div>","null","","","","","","",""
"","516","image-keyboard-response","151","2.0.0","178202","p1do82kqf48","smaller"," squirrel","The purpose of this experiment was to test how accurate and how fast you are able to respond given a change in perspective and size on specific images. ","When selected an incorrect image, when you press another key again it forces you back into the experiment instead of waiting for 5 seconds.","stimuli/23-Inongruent.jpg","z","","","","","left","z","true"
"","null","html-keyboard-response","152","2.0.0","179104","p1do82kqf48","smaller"," squirrel","The purpose of this experiment was to test how accurate and how fast you are able to respond given a change in perspective and size on specific images. ","When selected an incorrect image, when you press another key again it forces you back into the experiment instead of waiting for 5 seconds.","<p>Correct!</p>","null","","","","","","",""
"","null","html-keyboard-response","153","2.0.0","180107","p1do82kqf48","smaller"," squirrel","The purpose of this experiment was to test how accurate and how fast you are able to respond given a change in perspective and size on specific images. ","When selected an incorrect image, when you press another key again it forces you back into the experiment instead of waiting for 5 seconds.","<div style=""font-size:60px;"">+</div>","null","","","","","","",""
"","413","image-keyboard-response","154","2.0.0","180522","p1do82kqf48","smaller"," squirrel","The purpose of this experiment was to test how accurate and how fast you are able to respond given a change in perspective and size on specific images. ","When selected an incorrect image, when you press another key again it forces you back into the experiment instead of waiting for 5 seconds.","stimuli/18-Congruent.jpg","m","","","","","right","m","true"
"","null","html-keyboard-response","155","2.0.0","181425","p1do82kqf48","smaller"," squirrel","The purpose of this experiment was to test how accurate and how fast you are able to respond given a change in perspective and size on specific images. ","When selected an incorrect image, when you press another key again it forces you back into the experiment instead of waiting for 5 seconds.","<p>Correct!</p>","null","","","","","","",""
"","null","html-keyboard-response","156","2.0.0","182427","p1do82kqf48","smaller"," squirrel","The purpose of this experiment was to test how accurate and how fast you are able to respond given a change in perspective and size on specific images. ","When selected an incorrect image, when you press another key again it forces you back into the experiment instead of waiting for 5 seconds.","<div style=""font-size:60px;"">+</div>","null","","","","","","",""
"","545","image-keyboard-response","157","2.0.0","182974","p1do82kqf48","smaller"," squirrel","The purpose of this experiment was to test how accurate and how fast you are able to respond given a change in perspective and size on specific images. ","When selected an incorrect image, when you press another key again it forces you back into the experiment instead of waiting for 5 seconds.","stimuli/31-Inongruent.jpg","z","","","","","left","z","true"
"","null","html-keyboard-response","158","2.0.0","183877","p1do82kqf48","smaller"," squirrel","The purpose of this experiment was to test how accurate and how fast you are able to respond given a change in perspective and size on specific images. ","When selected an incorrect image, when you press another key again it forces you back into the experiment instead of waiting for 5 seconds.","<p>Correct!</p>","null","","","","","","",""
"","null","html-keyboard-response","159","2.0.0","184880","p1do82kqf48","smaller"," squirrel","The purpose of this experiment was to test how accurate and how fast you are able to respond given a change in perspective and size on specific images. ","When selected an incorrect image, when you press another key again it forces you back into the experiment instead of waiting for 5 seconds.","<div style=""font-size:60px;"">+</div>","null","","","","","","",""
"","474","image-keyboard-response","160","2.0.0","185356","p1do82kqf48","smaller"," squirrel","The purpose of this experiment was to test how accurate and how fast you are able to respond given a change in perspective and size on specific images. ","When selected an incorrect image, when you press another key again it forces you back into the experiment instead of waiting for 5 seconds.","stimuli/20-Inongruent.jpg","z","","","","","left","z","true"
"","null","html-keyboard-response","161","2.0.0","186260","p1do82kqf48","smaller"," squirrel","The purpose of this experiment was to test how accurate and how fast you are able to respond given a change in perspective and size on specific images. ","When selected an incorrect image, when you press another key again it forces you back into the experiment instead of waiting for 5 seconds.","<p>Correct!</p>","null","","","","","","",""
"","null","html-keyboard-response","162","2.0.0","187263","p1do82kqf48","smaller"," squirrel","The purpose of this experiment was to test how accurate and how fast you are able to respond given a change in perspective and size on specific images. ","When selected an incorrect image, when you press another key again it forces you back into the experiment instead of waiting for 5 seconds.","<div style=""font-size:60px;"">+</div>","null","","","","","","",""
"","491","image-keyboard-response","163","2.0.0","187756","p1do82kqf48","smaller"," squirrel","The purpose of this experiment was to test how accurate and how fast you are able to respond given a change in perspective and size on specific images. ","When selected an incorrect image, when you press another key again it forces you back into the experiment instead of waiting for 5 seconds.","stimuli/19-Congruent.jpg","m","","","","","right","m","true"
"","null","html-keyboard-response","164","2.0.0","188659","p1do82kqf48","smaller"," squirrel","The purpose of this experiment was to test how accurate and how fast you are able to respond given a change in perspective and size on specific images. ","When selected an incorrect image, when you press another key again it forces you back into the experiment instead of waiting for 5 seconds.","<p>Correct!</p>","null","","","","","","",""
"","null","html-keyboard-response","165","2.0.0","189662","p1do82kqf48","smaller"," squirrel","The purpose of this experiment was to test how accurate and how fast you are able to respond given a change in perspective and size on specific images. ","When selected an incorrect image, when you press another key again it forces you back into the experiment instead of waiting for 5 seconds.","<div style=""font-size:60px;"">+</div>","null","","","","","","",""
"","458","image-keyboard-response","166","2.0.0","190122","p1do82kqf48","smaller"," squirrel","The purpose of this experiment was to test how accurate and how fast you are able to respond given a change in perspective and size on specific images. ","When selected an incorrect image, when you press another key again it forces you back into the experiment instead of waiting for 5 seconds.","stimuli/11-Inongruent.jpg","z","","","","","left","z","true"
"","null","html-keyboard-response","167","2.0.0","191025","p1do82kqf48","smaller"," squirrel","The purpose of this experiment was to test how accurate and how fast you are able to respond given a change in perspective and size on specific images. ","When selected an incorrect image, when you press another key again it forces you back into the experiment instead of waiting for 5 seconds.","<p>Correct!</p>","null","","","","","","",""
"","null","html-keyboard-response","168","2.0.0","192026","p1do82kqf48","smaller"," squirrel","The purpose of this experiment was to test how accurate and how fast you are able to respond given a change in perspective and size on specific images. ","When selected an incorrect image, when you press another key again it forces you back into the experiment instead of waiting for 5 seconds.","<div style=""font-size:60px;"">+</div>","null","","","","","","",""
"","655","image-keyboard-response","169","2.0.0","192684","p1do82kqf48","smaller"," squirrel","The purpose of this experiment was to test how accurate and how fast you are able to respond given a change in perspective and size on specific images. ","When selected an incorrect image, when you press another key again it forces you back into the experiment instead of waiting for 5 seconds.","stimuli/32-Congruent.jpg","m","","","","","right","m","true"
"","null","html-keyboard-response","170","2.0.0","193587","p1do82kqf48","smaller"," squirrel","The purpose of this experiment was to test how accurate and how fast you are able to respond given a change in perspective and size on specific images. ","When selected an incorrect image, when you press another key again it forces you back into the experiment instead of waiting for 5 seconds.","<p>Correct!</p>","null","","","","","","",""
"","null","html-keyboard-response","171","2.0.0","194589","p1do82kqf48","smaller"," squirrel","The purpose of this experiment was to test how accurate and how fast you are able to respond given a change in perspective and size on specific images. ","When selected an incorrect image, when you press another key again it forces you back into the experiment instead of waiting for 5 seconds.","<div style=""font-size:60px;"">+</div>","null","","","","","","",""
"","416","image-keyboard-response","172","2.0.0","195008","p1do82kqf48","smaller"," squirrel","The purpose of this experiment was to test how accurate and how fast you are able to respond given a change in perspective and size on specific images. ","When selected an incorrect image, when you press another key again it forces you back into the experiment instead of waiting for 5 seconds.","stimuli/30-Congruent.jpg","m","","","","","right","m","true"
"","null","html-keyboard-response","173","2.0.0","195910","p1do82kqf48","smaller"," squirrel","The purpose of this experiment was to test how accurate and how fast you are able to respond given a change in perspective and size on specific images. ","When selected an incorrect image, when you press another key again it forces you back into the experiment instead of waiting for 5 seconds.","<p>Correct!</p>","null","","","","","","",""
"","null","html-keyboard-response","174","2.0.0","196913","p1do82kqf48","smaller"," squirrel","The purpose of this experiment was to test how accurate and how fast you are able to respond given a change in perspective and size on specific images. ","When selected an incorrect image, when you press another key again it forces you back into the experiment instead of waiting for 5 seconds.","<div style=""font-size:60px;"">+</div>","null","","","","","","",""
"","522","image-keyboard-response","175","2.0.0","197437","p1do82kqf48","smaller"," squirrel","The purpose of this experiment was to test how accurate and how fast you are able to respond given a change in perspective and size on specific images. ","When selected an incorrect image, when you press another key again it forces you back into the experiment instead of waiting for 5 seconds.","stimuli/4-Inongruent.jpg","z","","","","","left","z","true"
"","null","html-keyboard-response","176","2.0.0","198340","p1do82kqf48","smaller"," squirrel","The purpose of this experiment was to test how accurate and how fast you are able to respond given a change in perspective and size on specific images. ","When selected an incorrect image, when you press another key again it forces you back into the experiment instead of waiting for 5 seconds.","<p>Correct!</p>","null","","","","","","",""
"","null","html-keyboard-response","177","2.0.0","199343","p1do82kqf48","smaller"," squirrel","The purpose of this experiment was to test how accurate and how fast you are able to respond given a change in perspective and size on specific images. ","When selected an incorrect image, when you press another key again it forces you back into the experiment instead of waiting for 5 seconds.","<div style=""font-size:60px;"">+</div>","null","","","","","","",""
"","412","image-keyboard-response","178","2.0.0","199759","p1do82kqf48","smaller"," squirrel","The purpose of this experiment was to test how accurate and how fast you are able to respond given a change in perspective and size on specific images. ","When selected an incorrect image, when you press another key again it forces you back into the experiment instead of waiting for 5 seconds.","stimuli/6-Inongruent.jpg","z","","","","","left","z","true"
"","null","html-keyboard-response","179","2.0.0","200661","p1do82kqf48","smaller"," squirrel","The purpose of this experiment was to test how accurate and how fast you are able to respond given a change in perspective and size on specific images. ","When selected an incorrect image, when you press another key again it forces you back into the experiment instead of waiting for 5 seconds.","<p>Correct!</p>","null","","","","","","",""
"","null","html-keyboard-response","180","2.0.0","201664","p1do82kqf48","smaller"," squirrel","The purpose of this experiment was to test how accurate and how fast you are able to respond given a change in perspective and size on specific images. ","When selected an incorrect image, when you press another key again it forces you back into the experiment instead of waiting for 5 seconds.","<div style=""font-size:60px;"">+</div>","null","","","","","","",""
"","542","image-keyboard-response","181","2.0.0","202209","p1do82kqf48","smaller"," squirrel","The purpose of this experiment was to test how accurate and how fast you are able to respond given a change in perspective and size on specific images. ","When selected an incorrect image, when you press another key again it forces you back into the experiment instead of waiting for 5 seconds.","stimuli/26-Inongruent.jpg","z","","","","","left","z","true"
"","null","html-keyboard-response","182","2.0.0","203112","p1do82kqf48","smaller"," squirrel","The purpose of this experiment was to test how accurate and how fast you are able to respond given a change in perspective and size on specific images. ","When selected an incorrect image, when you press another key again it forces you back into the experiment instead of waiting for 5 seconds.","<p>Correct!</p>","null","","","","","","",""
"","null","html-keyboard-response","183","2.0.0","204115","p1do82kqf48","smaller"," squirrel","The purpose of this experiment was to test how accurate and how fast you are able to respond given a change in perspective and size on specific images. ","When selected an incorrect image, when you press another key again it forces you back into the experiment instead of waiting for 5 seconds.","<div style=""font-size:60px;"">+</div>","null","","","","","","",""
"","846","image-keyboard-response","184","2.0.0","204963","p1do82kqf48","smaller"," squirrel","The purpose of this experiment was to test how accurate and how fast you are able to respond given a change in perspective and size on specific images. ","When selected an incorrect image, when you press another key again it forces you back into the experiment instead of waiting for 5 seconds.","stimuli/18-Congruent.jpg","m","","","","","right","m","true"
"","null","html-keyboard-response","185","2.0.0","205866","p1do82kqf48","smaller"," squirrel","The purpose of this experiment was to test how accurate and how fast you are able to respond given a change in perspective and size on specific images. ","When selected an incorrect image, when you press another key again it forces you back into the experiment instead of waiting for 5 seconds.","<p>Correct!</p>","null","","","","","","",""
"","null","html-keyboard-response","186","2.0.0","206868","p1do82kqf48","smaller"," squirrel","The purpose of this experiment was to test how accurate and how fast you are able to respond given a change in perspective and size on specific images. ","When selected an incorrect image, when you press another key again it forces you back into the experiment instead of waiting for 5 seconds.","<div style=""font-size:60px;"">+</div>","null","","","","","","",""
"","462","image-keyboard-response","187","2.0.0","207332","p1do82kqf48","smaller"," squirrel","The purpose of this experiment was to test how accurate and how fast you are able to respond given a change in perspective and size on specific images. ","When selected an incorrect image, when you press another key again it forces you back into the experiment instead of waiting for 5 seconds.","stimuli/26-Inongruent.jpg","z","","","","","left","z","true"
"","null","html-keyboard-response","188","2.0.0","208235","p1do82kqf48","smaller"," squirrel","The purpose of this experiment was to test how accurate and how fast you are able to respond given a change in perspective and size on specific images. ","When selected an incorrect image, when you press another key again it forces you back into the experiment instead of waiting for 5 seconds.","<p>Correct!</p>","null","","","","","","",""
"","null","html-keyboard-response","189","2.0.0","209237","p1do82kqf48","smaller"," squirrel","The purpose of this experiment was to test how accurate and how fast you are able to respond given a change in perspective and size on specific images. ","When selected an incorrect image, when you press another key again it forces you back into the experiment instead of waiting for 5 seconds.","<div style=""font-size:60px;"">+</div>","null","","","","","","",""
"","687","image-keyboard-response","190","2.0.0","209925","p1do82kqf48","smaller"," squirrel","The purpose of this experiment was to test how accurate and how fast you are able to respond given a change in perspective and size on specific images. ","When selected an incorrect image, when you press another key again it forces you back into the experiment instead of waiting for 5 seconds.","stimuli/12-Inongruent.jpg","z","","","","","left","z","true"
"","null","html-keyboard-response","191","2.0.0","210827","p1do82kqf48","smaller"," squirrel","The purpose of this experiment was to test how accurate and how fast you are able to respond given a change in perspective and size on specific images. ","When selected an incorrect image, when you press another key again it forces you back into the experiment instead of waiting for 5 seconds.","<p>Correct!</p>","null","","","","","","",""
"","null","html-keyboard-response","192","2.0.0","211832","p1do82kqf48","smaller"," squirrel","The purpose of this experiment was to test how accurate and how fast you are able to respond given a change in perspective and size on specific images. ","When selected an incorrect image, when you press another key again it forces you back into the experiment instead of waiting for 5 seconds.","<div style=""font-size:60px;"">+</div>","null","","","","","","",""
"","817","image-keyboard-response","193","2.0.0","212651","p1do82kqf48","smaller"," squirrel","The purpose of this experiment was to test how accurate and how fast you are able to respond given a change in perspective and size on specific images. ","When selected an incorrect image, when you press another key again it forces you back into the experiment instead of waiting for 5 seconds.","stimuli/36-Inongruent.jpg","z","","","","","left","z","true"
"","null","html-keyboard-response","194","2.0.0","213553","p1do82kqf48","smaller"," squirrel","The purpose of this experiment was to test how accurate and how fast you are able to respond given a change in perspective and size on specific images. ","When selected an incorrect image, when you press another key again it forces you back into the experiment instead of waiting for 5 seconds.","<p>Correct!</p>","null","","","","","","",""
"","null","html-keyboard-response","195","2.0.0","214558","p1do82kqf48","smaller"," squirrel","The purpose of this experiment was to test how accurate and how fast you are able to respond given a change in perspective and size on specific images. ","When selected an incorrect image, when you press another key again it forces you back into the experiment instead of waiting for 5 seconds.","<div style=""font-size:60px;"">+</div>","null","","","","","","",""
"","560","image-keyboard-response","196","2.0.0","215120","p1do82kqf48","smaller"," squirrel","The purpose of this experiment was to test how accurate and how fast you are able to respond given a change in perspective and size on specific images. ","When selected an incorrect image, when you press another key again it forces you back into the experiment instead of waiting for 5 seconds.","stimuli/28-Inongruent.jpg","z","","","","","left","z","true"
"","null","html-keyboard-response","197","2.0.0","216023","p1do82kqf48","smaller"," squirrel","The purpose of this experiment was to test how accurate and how fast you are able to respond given a change in perspective and size on specific images. ","When selected an incorrect image, when you press another key again it forces you back into the experiment instead of waiting for 5 seconds.","<p>Correct!</p>","null","","","","","","",""
"","null","html-keyboard-response","198","2.0.0","217026","p1do82kqf48","smaller"," squirrel","The purpose of this experiment was to test how accurate and how fast you are able to respond given a change in perspective and size on specific images. ","When selected an incorrect image, when you press another key again it forces you back into the experiment instead of waiting for 5 seconds.","<div style=""font-size:60px;"">+</div>","null","","","","","","",""
"","376","image-keyboard-response","199","2.0.0","217404","p1do82kqf48","smaller"," squirrel","The purpose of this experiment was to test how accurate and how fast you are able to respond given a change in perspective and size on specific images. ","When selected an incorrect image, when you press another key again it forces you back into the experiment instead of waiting for 5 seconds.","stimuli/23-Congruent.jpg","m","","","","","right","m","true"
"","null","html-keyboard-response","200","2.0.0","218307","p1do82kqf48","smaller"," squirrel","The purpose of this experiment was to test how accurate and how fast you are able to respond given a change in perspective and size on specific images. ","When selected an incorrect image, when you press another key again it forces you back into the experiment instead of waiting for 5 seconds.","<p>Correct!</p>","null","","","","","","",""
"","null","html-keyboard-response","201","2.0.0","219308","p1do82kqf48","smaller"," squirrel","The purpose of this experiment was to test how accurate and how fast you are able to respond given a change in perspective and size on specific images. ","When selected an incorrect image, when you press another key again it forces you back into the experiment instead of waiting for 5 seconds.","<div style=""font-size:60px;"">+</div>","null","","","","","","",""
"","449","image-keyboard-response","202","2.0.0","219761","p1do82kqf48","smaller"," squirrel","The purpose of this experiment was to test how accurate and how fast you are able to respond given a change in perspective and size on specific images. ","When selected an incorrect image, when you press another key again it forces you back into the experiment instead of waiting for 5 seconds.","stimuli/30-Inongruent.jpg","z","","","","","left","z","true"
"","null","html-keyboard-response","203","2.0.0","220663","p1do82kqf48","smaller"," squirrel","The purpose of this experiment was to test how accurate and how fast you are able to respond given a change in perspective and size on specific images. ","When selected an incorrect image, when you press another key again it forces you back into the experiment instead of waiting for 5 seconds.","<p>Correct!</p>","null","","","","","","",""
"","null","html-keyboard-response","204","2.0.0","221665","p1do82kqf48","smaller"," squirrel","The purpose of this experiment was to test how accurate and how fast you are able to respond given a change in perspective and size on specific images. ","When selected an incorrect image, when you press another key again it forces you back into the experiment instead of waiting for 5 seconds.","<div style=""font-size:60px;"">+</div>","null","","","","","","",""
"","464","image-keyboard-response","205","2.0.0","222133","p1do82kqf48","smaller"," squirrel","The purpose of this experiment was to test how accurate and how fast you are able to respond given a change in perspective and size on specific images. ","When selected an incorrect image, when you press another key again it forces you back into the experiment instead of waiting for 5 seconds.","stimuli/9-Inongruent.jpg","z","","","","","left","z","true"
"","null","html-keyboard-response","206","2.0.0","223036","p1do82kqf48","smaller"," squirrel","The purpose of this experiment was to test how accurate and how fast you are able to respond given a change in perspective and size on specific images. ","When selected an incorrect image, when you press another key again it forces you back into the experiment instead of waiting for 5 seconds.","<p>Correct!</p>","null","","","","","","",""
"","null","html-keyboard-response","207","2.0.0","224038","p1do82kqf48","smaller"," squirrel","The purpose of this experiment was to test how accurate and how fast you are able to respond given a change in perspective and size on specific images. ","When selected an incorrect image, when you press another key again it forces you back into the experiment instead of waiting for 5 seconds.","<div style=""font-size:60px;"">+</div>","null","","","","","","",""
"","1156","image-keyboard-response","208","2.0.0","225195","p1do82kqf48","smaller"," squirrel","The purpose of this experiment was to test how accurate and how fast you are able to respond given a change in perspective and size on specific images. ","When selected an incorrect image, when you press another key again it forces you back into the experiment instead of waiting for 5 seconds.","stimuli/15-Inongruent.jpg","z","","","","","left","z","true"
"","null","html-keyboard-response","209","2.0.0","226098","p1do82kqf48","smaller"," squirrel","The purpose of this experiment was to test how accurate and how fast you are able to respond given a change in perspective and size on specific images. ","When selected an incorrect image, when you press another key again it forces you back into the experiment instead of waiting for 5 seconds.","<p>Correct!</p>","null","","","","","","",""
"","null","html-keyboard-response","210","2.0.0","227100","p1do82kqf48","smaller"," squirrel","The purpose of this experiment was to test how accurate and how fast you are able to respond given a change in perspective and size on specific images. ","When selected an incorrect image, when you press another key again it forces you back into the experiment instead of waiting for 5 seconds.","<div style=""font-size:60px;"">+</div>","null","","","","","","",""
"","699","image-keyboard-response","211","2.0.0","227801","p1do82kqf48","smaller"," squirrel","The purpose of this experiment was to test how accurate and how fast you are able to respond given a change in perspective and size on specific images. ","When selected an incorrect image, when you press another key again it forces you back into the experiment instead of waiting for 5 seconds.","stimuli/28-Congruent.jpg","m","","","","","right","m","true"
"","null","html-keyboard-response","212","2.0.0","228703","p1do82kqf48","smaller"," squirrel","The purpose of this experiment was to test how accurate and how fast you are able to respond given a change in perspective and size on specific images. ","When selected an incorrect image, when you press another key again it forces you back into the experiment instead of waiting for 5 seconds.","<p>Correct!</p>","null","","","","","","",""
"","null","html-keyboard-response","213","2.0.0","229706","p1do82kqf48","smaller"," squirrel","The purpose of this experiment was to test how accurate and how fast you are able to respond given a change in perspective and size on specific images. ","When selected an incorrect image, when you press another key again it forces you back into the experiment instead of waiting for 5 seconds.","<div style=""font-size:60px;"">+</div>","null","","","","","","",""
"","1238","image-keyboard-response","214","2.0.0","230945","p1do82kqf48","smaller"," squirrel","The purpose of this experiment was to test how accurate and how fast you are able to respond given a change in perspective and size on specific images. ","When selected an incorrect image, when you press another key again it forces you back into the experiment instead of waiting for 5 seconds.","stimuli/19-Congruent.jpg","m","","","","","right","m","true"
"","null","html-keyboard-response","215","2.0.0","231848","p1do82kqf48","smaller"," squirrel","The purpose of this experiment was to test how accurate and how fast you are able to respond given a change in perspective and size on specific images. ","When selected an incorrect image, when you press another key again it forces you back into the experiment instead of waiting for 5 seconds.","<p>Correct!</p>","null","","","","","","",""
"","null","html-keyboard-response","216","2.0.0","232849","p1do82kqf48","smaller"," squirrel","The purpose of this experiment was to test how accurate and how fast you are able to respond given a change in perspective and size on specific images. ","When selected an incorrect image, when you press another key again it forces you back into the experiment instead of waiting for 5 seconds.","<div style=""font-size:60px;"">+</div>","null","","","","","","",""
"","1062","image-keyboard-response","217","2.0.0","233911","p1do82kqf48","smaller"," squirrel","The purpose of this experiment was to test how accurate and how fast you are able to respond given a change in perspective and size on specific images. ","When selected an incorrect image, when you press another key again it forces you back into the experiment instead of waiting for 5 seconds.","stimuli/6-Congruent.jpg","z","","","","","right","m","false"
"","2158","html-keyboard-response","218","2.0.0","236070","p1do82kqf48","smaller"," squirrel","The purpose of this experiment was to test how accurate and how fast you are able to respond given a change in perspective and size on specific images. ","When selected an incorrect image, when you press another key again it forces you back into the experiment instead of waiting for 5 seconds.","<p>Incorrect.</p><p>Remember to select the <b>smaller</b> image.</p><p>Continuing in 5 seconds...</p>","m","","","","","","",""
"","null","html-keyboard-response","219","2.0.0","237073","p1do82kqf48","smaller"," squirrel","The purpose of this experiment was to test how accurate and how fast you are able to respond given a change in perspective and size on specific images. ","When selected an incorrect image, when you press another key again it forces you back into the experiment instead of waiting for 5 seconds.","<div style=""font-size:60px;"">+</div>","null","","","","","","",""
