"success","rt","trial_type","trial_index","plugin_version","time_elapsed","random_id","condition","participant","participant_thoughts","participant_difficulties","stimulus","response","timeout","failed_images","failed_audio","failed_video","correct_response","correct_response_key","correct"
"true","792","fullscreen","0","null","1795","p2pxoypm5n6","bigger","antelope","testing us, to see whether I could determine which of the two pictures being presented is bigger  ","no","","","","","","","","",""
"","4397","html-keyboard-response","1","2.0.0","6194","p2pxoypm5n6","bigger","antelope","testing us, to see whether I could determine which of the two pictures being presented is bigger  ","no","Welcome to the Size Stroop experiment. Press any key to begin.","v","","","","","","",""
"","null","html-keyboard-response","2","2.0.0","7197","p2pxoypm5n6","bigger","antelope","testing us, to see whether I could determine which of the two pictures being presented is bigger  ","no","This trial will be in fullscreen mode.","null","","","","","","",""
"","1634","survey-text","3","2.0.0","8836","p2pxoypm5n6","bigger","antelope","testing us, to see whether I could determine which of the two pictures being presented is bigger  ","no","","{""participant_id"":""antelope""}","","","","","","",""
"","8630","html-keyboard-response","4","2.0.0","17467","p2pxoypm5n6","bigger","antelope","testing us, to see whether I could determine which of the two pictures being presented is bigger  ","no","<p>In this experiment, two images will appear on the screen. Identify the <strong>larger</strong> images.</p>
              <p>If the image on the left is larger, press ""z"". If the image on the right is larger, press ""m"".</p>
              <p>Press any key to begin.</p>","h","","","","","","",""
"true","","preload","5","2.0.0","17501","p2pxoypm5n6","bigger","antelope","testing us, to see whether I could determine which of the two pictures being presented is bigger  ","no","","","false","[]","[]","[]","","",""
"","null","html-keyboard-response","6","2.0.0","18504","p2pxoypm5n6","bigger","antelope","testing us, to see whether I could determine which of the two pictures being presented is bigger  ","no","<div style=""font-size:60px;"">+</div>","null","","","","","","",""
"","1951","image-keyboard-response","7","2.0.0","20459","p2pxoypm5n6","bigger","antelope","testing us, to see whether I could determine which of the two pictures being presented is bigger  ","no","stimuli/21-Congruent.jpg","z","","","","","left","z","true"
"","null","html-keyboard-response","8","2.0.0","21362","p2pxoypm5n6","bigger","antelope","testing us, to see whether I could determine which of the two pictures being presented is bigger  ","no","<p>Correct!</p>","null","","","","","","",""
"","null","html-keyboard-response","9","2.0.0","22365","p2pxoypm5n6","bigger","antelope","testing us, to see whether I could determine which of the two pictures being presented is bigger  ","no","<div style=""font-size:60px;"">+</div>","null","","","","","","",""
"","2984","image-keyboard-response","10","2.0.0","25351","p2pxoypm5n6","bigger","antelope","testing us, to see whether I could determine which of the two pictures being presented is bigger  ","no","stimuli/1-Congruent.jpg","z","","","","","left","z","true"
"","null","html-keyboard-response","11","2.0.0","26254","p2pxoypm5n6","bigger","antelope","testing us, to see whether I could determine which of the two pictures being presented is bigger  ","no","<p>Correct!</p>","null","","","","","","",""
"","null","html-keyboard-response","12","2.0.0","27256","p2pxoypm5n6","bigger","antelope","testing us, to see whether I could determine which of the two pictures being presented is bigger  ","no","<div style=""font-size:60px;"">+</div>","null","","","","","","",""
"","3263","image-keyboard-response","13","2.0.0","30522","p2pxoypm5n6","bigger","antelope","testing us, to see whether I could determine which of the two pictures being presented is bigger  ","no","stimuli/4-Congruent.jpg","z","","","","","left","z","true"
"","null","html-keyboard-response","14","2.0.0","31425","p2pxoypm5n6","bigger","antelope","testing us, to see whether I could determine which of the two pictures being presented is bigger  ","no","<p>Correct!</p>","null","","","","","","",""
"","null","html-keyboard-response","15","2.0.0","32428","p2pxoypm5n6","bigger","antelope","testing us, to see whether I could determine which of the two pictures being presented is bigger  ","no","<div style=""font-size:60px;"">+</div>","null","","","","","","",""
"","2319","image-keyboard-response","16","2.0.0","34749","p2pxoypm5n6","bigger","antelope","testing us, to see whether I could determine which of the two pictures being presented is bigger  ","no","stimuli/12-Inongruent.jpg","m","","","","","right","m","true"
"","null","html-keyboard-response","17","2.0.0","35651","p2pxoypm5n6","bigger","antelope","testing us, to see whether I could determine which of the two pictures being presented is bigger  ","no","<p>Correct!</p>","null","","","","","","",""
"","null","html-keyboard-response","18","2.0.0","36654","p2pxoypm5n6","bigger","antelope","testing us, to see whether I could determine which of the two pictures being presented is bigger  ","no","<div style=""font-size:60px;"">+</div>","null","","","","","","",""
"","23730","image-keyboard-response","19","2.0.0","60385","p2pxoypm5n6","bigger","antelope","testing us, to see whether I could determine which of the two pictures being presented is bigger  ","no","stimuli/36-Inongruent.jpg","m","","","","","right","m","true"
"","null","html-keyboard-response","20","2.0.0","61287","p2pxoypm5n6","bigger","antelope","testing us, to see whether I could determine which of the two pictures being presented is bigger  ","no","<p>Correct!</p>","null","","","","","","",""
"","null","html-keyboard-response","21","2.0.0","62289","p2pxoypm5n6","bigger","antelope","testing us, to see whether I could determine which of the two pictures being presented is bigger  ","no","<div style=""font-size:60px;"">+</div>","null","","","","","","",""
"","908","image-keyboard-response","22","2.0.0","63199","p2pxoypm5n6","bigger","antelope","testing us, to see whether I could determine which of the two pictures being presented is bigger  ","no","stimuli/20-Congruent.jpg","z","","","","","left","z","true"
"","null","html-keyboard-response","23","2.0.0","64102","p2pxoypm5n6","bigger","antelope","testing us, to see whether I could determine which of the two pictures being presented is bigger  ","no","<p>Correct!</p>","null","","","","","","",""
"","null","html-keyboard-response","24","2.0.0","65104","p2pxoypm5n6","bigger","antelope","testing us, to see whether I could determine which of the two pictures being presented is bigger  ","no","<div style=""font-size:60px;"">+</div>","null","","","","","","",""
"","951","image-keyboard-response","25","2.0.0","66058","p2pxoypm5n6","bigger","antelope","testing us, to see whether I could determine which of the two pictures being presented is bigger  ","no","stimuli/36-Congruent.jpg","z","","","","","left","z","true"
"","null","html-keyboard-response","26","2.0.0","66960","p2pxoypm5n6","bigger","antelope","testing us, to see whether I could determine which of the two pictures being presented is bigger  ","no","<p>Correct!</p>","null","","","","","","",""
"","null","html-keyboard-response","27","2.0.0","67963","p2pxoypm5n6","bigger","antelope","testing us, to see whether I could determine which of the two pictures being presented is bigger  ","no","<div style=""font-size:60px;"">+</div>","null","","","","","","",""
"","763","image-keyboard-response","28","2.0.0","68728","p2pxoypm5n6","bigger","antelope","testing us, to see whether I could determine which of the two pictures being presented is bigger  ","no","stimuli/22-Inongruent.jpg","m","","","","","right","m","true"
"","null","html-keyboard-response","29","2.0.0","69631","p2pxoypm5n6","bigger","antelope","testing us, to see whether I could determine which of the two pictures being presented is bigger  ","no","<p>Correct!</p>","null","","","","","","",""
"","null","html-keyboard-response","30","2.0.0","70633","p2pxoypm5n6","bigger","antelope","testing us, to see whether I could determine which of the two pictures being presented is bigger  ","no","<div style=""font-size:60px;"">+</div>","null","","","","","","",""
"","1528","image-keyboard-response","31","2.0.0","72163","p2pxoypm5n6","bigger","antelope","testing us, to see whether I could determine which of the two pictures being presented is bigger  ","no","stimuli/14-Congruent.jpg","z","","","","","left","z","true"
"","null","html-keyboard-response","32","2.0.0","73066","p2pxoypm5n6","bigger","antelope","testing us, to see whether I could determine which of the two pictures being presented is bigger  ","no","<p>Correct!</p>","null","","","","","","",""
"","null","html-keyboard-response","33","2.0.0","74068","p2pxoypm5n6","bigger","antelope","testing us, to see whether I could determine which of the two pictures being presented is bigger  ","no","<div style=""font-size:60px;"">+</div>","null","","","","","","",""
"","736","image-keyboard-response","34","2.0.0","74807","p2pxoypm5n6","bigger","antelope","testing us, to see whether I could determine which of the two pictures being presented is bigger  ","no","stimuli/9-Inongruent.jpg","m","","","","","right","m","true"
"","null","html-keyboard-response","35","2.0.0","75710","p2pxoypm5n6","bigger","antelope","testing us, to see whether I could determine which of the two pictures being presented is bigger  ","no","<p>Correct!</p>","null","","","","","","",""
"","null","html-keyboard-response","36","2.0.0","76713","p2pxoypm5n6","bigger","antelope","testing us, to see whether I could determine which of the two pictures being presented is bigger  ","no","<div style=""font-size:60px;"">+</div>","null","","","","","","",""
"","792","image-keyboard-response","37","2.0.0","77507","p2pxoypm5n6","bigger","antelope","testing us, to see whether I could determine which of the two pictures being presented is bigger  ","no","stimuli/30-Congruent.jpg","z","","","","","left","z","true"
"","null","html-keyboard-response","38","2.0.0","78410","p2pxoypm5n6","bigger","antelope","testing us, to see whether I could determine which of the two pictures being presented is bigger  ","no","<p>Correct!</p>","null","","","","","","",""
"","null","html-keyboard-response","39","2.0.0","79413","p2pxoypm5n6","bigger","antelope","testing us, to see whether I could determine which of the two pictures being presented is bigger  ","no","<div style=""font-size:60px;"">+</div>","null","","","","","","",""
"","1002","image-keyboard-response","40","2.0.0","80417","p2pxoypm5n6","bigger","antelope","testing us, to see whether I could determine which of the two pictures being presented is bigger  ","no","stimuli/20-Congruent.jpg","z","","","","","left","z","true"
"","null","html-keyboard-response","41","2.0.0","81319","p2pxoypm5n6","bigger","antelope","testing us, to see whether I could determine which of the two pictures being presented is bigger  ","no","<p>Correct!</p>","null","","","","","","",""
"","null","html-keyboard-response","42","2.0.0","82322","p2pxoypm5n6","bigger","antelope","testing us, to see whether I could determine which of the two pictures being presented is bigger  ","no","<div style=""font-size:60px;"">+</div>","null","","","","","","",""
"","250746","image-keyboard-response","43","2.0.0","5726346","p2pxoypm5n6","bigger","antelope","testing us, to see whether I could determine which of the two pictures being presented is bigger  ","no","stimuli/1-Inongruent.jpg","m","","","","","right","m","true"
"","null","html-keyboard-response","44","2.0.0","5727249","p2pxoypm5n6","bigger","antelope","testing us, to see whether I could determine which of the two pictures being presented is bigger  ","no","<p>Correct!</p>","null","","","","","","",""
"","null","html-keyboard-response","45","2.0.0","5728252","p2pxoypm5n6","bigger","antelope","testing us, to see whether I could determine which of the two pictures being presented is bigger  ","no","<div style=""font-size:60px;"">+</div>","null","","","","","","",""
"","1329","image-keyboard-response","46","2.0.0","5729583","p2pxoypm5n6","bigger","antelope","testing us, to see whether I could determine which of the two pictures being presented is bigger  ","no","stimuli/33-Inongruent.jpg","m","","","","","right","m","true"
"","null","html-keyboard-response","47","2.0.0","5730486","p2pxoypm5n6","bigger","antelope","testing us, to see whether I could determine which of the two pictures being presented is bigger  ","no","<p>Correct!</p>","null","","","","","","",""
"","null","html-keyboard-response","48","2.0.0","5731488","p2pxoypm5n6","bigger","antelope","testing us, to see whether I could determine which of the two pictures being presented is bigger  ","no","<div style=""font-size:60px;"">+</div>","null","","","","","","",""
"","807","image-keyboard-response","49","2.0.0","5732296","p2pxoypm5n6","bigger","antelope","testing us, to see whether I could determine which of the two pictures being presented is bigger  ","no","stimuli/7-Inongruent.jpg","m","","","","","right","m","true"
"","null","html-keyboard-response","50","2.0.0","5733198","p2pxoypm5n6","bigger","antelope","testing us, to see whether I could determine which of the two pictures being presented is bigger  ","no","<p>Correct!</p>","null","","","","","","",""
"","null","html-keyboard-response","51","2.0.0","5734201","p2pxoypm5n6","bigger","antelope","testing us, to see whether I could determine which of the two pictures being presented is bigger  ","no","<div style=""font-size:60px;"">+</div>","null","","","","","","",""
"","598","image-keyboard-response","52","2.0.0","5734801","p2pxoypm5n6","bigger","antelope","testing us, to see whether I could determine which of the two pictures being presented is bigger  ","no","stimuli/9-Congruent.jpg","z","","","","","left","z","true"
"","null","html-keyboard-response","53","2.0.0","5735703","p2pxoypm5n6","bigger","antelope","testing us, to see whether I could determine which of the two pictures being presented is bigger  ","no","<p>Correct!</p>","null","","","","","","",""
"","null","html-keyboard-response","54","2.0.0","5736705","p2pxoypm5n6","bigger","antelope","testing us, to see whether I could determine which of the two pictures being presented is bigger  ","no","<div style=""font-size:60px;"">+</div>","null","","","","","","",""
"","734","image-keyboard-response","55","2.0.0","5737441","p2pxoypm5n6","bigger","antelope","testing us, to see whether I could determine which of the two pictures being presented is bigger  ","no","stimuli/36-Congruent.jpg","z","","","","","left","z","true"
"","null","html-keyboard-response","56","2.0.0","5738343","p2pxoypm5n6","bigger","antelope","testing us, to see whether I could determine which of the two pictures being presented is bigger  ","no","<p>Correct!</p>","null","","","","","","",""
"","null","html-keyboard-response","57","2.0.0","5739346","p2pxoypm5n6","bigger","antelope","testing us, to see whether I could determine which of the two pictures being presented is bigger  ","no","<div style=""font-size:60px;"">+</div>","null","","","","","","",""
"","584","image-keyboard-response","58","2.0.0","5739932","p2pxoypm5n6","bigger","antelope","testing us, to see whether I could determine which of the two pictures being presented is bigger  ","no","stimuli/26-Inongruent.jpg","m","","","","","right","m","true"
"","null","html-keyboard-response","59","2.0.0","5740834","p2pxoypm5n6","bigger","antelope","testing us, to see whether I could determine which of the two pictures being presented is bigger  ","no","<p>Correct!</p>","null","","","","","","",""
"","null","html-keyboard-response","60","2.0.0","5741836","p2pxoypm5n6","bigger","antelope","testing us, to see whether I could determine which of the two pictures being presented is bigger  ","no","<div style=""font-size:60px;"">+</div>","null","","","","","","",""
"","816","image-keyboard-response","61","2.0.0","5742654","p2pxoypm5n6","bigger","antelope","testing us, to see whether I could determine which of the two pictures being presented is bigger  ","no","stimuli/5-Congruent.jpg","z","","","","","left","z","true"
"","null","html-keyboard-response","62","2.0.0","5743557","p2pxoypm5n6","bigger","antelope","testing us, to see whether I could determine which of the two pictures being presented is bigger  ","no","<p>Correct!</p>","null","","","","","","",""
"","null","html-keyboard-response","63","2.0.0","5744560","p2pxoypm5n6","bigger","antelope","testing us, to see whether I could determine which of the two pictures being presented is bigger  ","no","<div style=""font-size:60px;"">+</div>","null","","","","","","",""
"","660","image-keyboard-response","64","2.0.0","5745222","p2pxoypm5n6","bigger","antelope","testing us, to see whether I could determine which of the two pictures being presented is bigger  ","no","stimuli/18-Inongruent.jpg","m","","","","","right","m","true"
"","null","html-keyboard-response","65","2.0.0","5746124","p2pxoypm5n6","bigger","antelope","testing us, to see whether I could determine which of the two pictures being presented is bigger  ","no","<p>Correct!</p>","null","","","","","","",""
"","null","html-keyboard-response","66","2.0.0","5747127","p2pxoypm5n6","bigger","antelope","testing us, to see whether I could determine which of the two pictures being presented is bigger  ","no","<div style=""font-size:60px;"">+</div>","null","","","","","","",""
"","1160","image-keyboard-response","67","2.0.0","5748289","p2pxoypm5n6","bigger","antelope","testing us, to see whether I could determine which of the two pictures being presented is bigger  ","no","stimuli/3-Inongruent.jpg","m","","","","","right","m","true"
"","null","html-keyboard-response","68","2.0.0","5749192","p2pxoypm5n6","bigger","antelope","testing us, to see whether I could determine which of the two pictures being presented is bigger  ","no","<p>Correct!</p>","null","","","","","","",""
"","null","html-keyboard-response","69","2.0.0","5750195","p2pxoypm5n6","bigger","antelope","testing us, to see whether I could determine which of the two pictures being presented is bigger  ","no","<div style=""font-size:60px;"">+</div>","null","","","","","","",""
"","1608","image-keyboard-response","70","2.0.0","5751805","p2pxoypm5n6","bigger","antelope","testing us, to see whether I could determine which of the two pictures being presented is bigger  ","no","stimuli/17-Congruent.jpg","z","","","","","left","z","true"
"","null","html-keyboard-response","71","2.0.0","5752707","p2pxoypm5n6","bigger","antelope","testing us, to see whether I could determine which of the two pictures being presented is bigger  ","no","<p>Correct!</p>","null","","","","","","",""
"","null","html-keyboard-response","72","2.0.0","5753710","p2pxoypm5n6","bigger","antelope","testing us, to see whether I could determine which of the two pictures being presented is bigger  ","no","<div style=""font-size:60px;"">+</div>","null","","","","","","",""
"","1166","image-keyboard-response","73","2.0.0","5754877","p2pxoypm5n6","bigger","antelope","testing us, to see whether I could determine which of the two pictures being presented is bigger  ","no","stimuli/6-Congruent.jpg","z","","","","","left","z","true"
"","null","html-keyboard-response","74","2.0.0","5755780","p2pxoypm5n6","bigger","antelope","testing us, to see whether I could determine which of the two pictures being presented is bigger  ","no","<p>Correct!</p>","null","","","","","","",""
"","null","html-keyboard-response","75","2.0.0","5756783","p2pxoypm5n6","bigger","antelope","testing us, to see whether I could determine which of the two pictures being presented is bigger  ","no","<div style=""font-size:60px;"">+</div>","null","","","","","","",""
"","1526","image-keyboard-response","76","2.0.0","5758311","p2pxoypm5n6","bigger","antelope","testing us, to see whether I could determine which of the two pictures being presented is bigger  ","no","stimuli/34-Inongruent.jpg","m","","","","","right","m","true"
"","null","html-keyboard-response","77","2.0.0","5759214","p2pxoypm5n6","bigger","antelope","testing us, to see whether I could determine which of the two pictures being presented is bigger  ","no","<p>Correct!</p>","null","","","","","","",""
"","null","html-keyboard-response","78","2.0.0","5760217","p2pxoypm5n6","bigger","antelope","testing us, to see whether I could determine which of the two pictures being presented is bigger  ","no","<div style=""font-size:60px;"">+</div>","null","","","","","","",""
"","1926","image-keyboard-response","79","2.0.0","5762145","p2pxoypm5n6","bigger","antelope","testing us, to see whether I could determine which of the two pictures being presented is bigger  ","no","stimuli/35-Congruent.jpg","z","","","","","left","z","true"
"","null","html-keyboard-response","80","2.0.0","5763046","p2pxoypm5n6","bigger","antelope","testing us, to see whether I could determine which of the two pictures being presented is bigger  ","no","<p>Correct!</p>","null","","","","","","",""
"","null","html-keyboard-response","81","2.0.0","5764049","p2pxoypm5n6","bigger","antelope","testing us, to see whether I could determine which of the two pictures being presented is bigger  ","no","<div style=""font-size:60px;"">+</div>","null","","","","","","",""
"","6425","image-keyboard-response","82","2.0.0","5770476","p2pxoypm5n6","bigger","antelope","testing us, to see whether I could determine which of the two pictures being presented is bigger  ","no","stimuli/1-Inongruent.jpg","m","","","","","right","m","true"
"","null","html-keyboard-response","83","2.0.0","5771379","p2pxoypm5n6","bigger","antelope","testing us, to see whether I could determine which of the two pictures being presented is bigger  ","no","<p>Correct!</p>","null","","","","","","",""
"","null","html-keyboard-response","84","2.0.0","5772381","p2pxoypm5n6","bigger","antelope","testing us, to see whether I could determine which of the two pictures being presented is bigger  ","no","<div style=""font-size:60px;"">+</div>","null","","","","","","",""
"","16987","image-keyboard-response","85","2.0.0","5789369","p2pxoypm5n6","bigger","antelope","testing us, to see whether I could determine which of the two pictures being presented is bigger  ","no","stimuli/5-Congruent.jpg","z","","","","","left","z","true"
"","null","html-keyboard-response","86","2.0.0","5790272","p2pxoypm5n6","bigger","antelope","testing us, to see whether I could determine which of the two pictures being presented is bigger  ","no","<p>Correct!</p>","null","","","","","","",""
"","null","html-keyboard-response","87","2.0.0","5791274","p2pxoypm5n6","bigger","antelope","testing us, to see whether I could determine which of the two pictures being presented is bigger  ","no","<div style=""font-size:60px;"">+</div>","null","","","","","","",""
"","3760","image-keyboard-response","88","2.0.0","5795035","p2pxoypm5n6","bigger","antelope","testing us, to see whether I could determine which of the two pictures being presented is bigger  ","no","stimuli/18-Congruent.jpg","z","","","","","left","z","true"
"","null","html-keyboard-response","89","2.0.0","5795937","p2pxoypm5n6","bigger","antelope","testing us, to see whether I could determine which of the two pictures being presented is bigger  ","no","<p>Correct!</p>","null","","","","","","",""
"","null","html-keyboard-response","90","2.0.0","5796939","p2pxoypm5n6","bigger","antelope","testing us, to see whether I could determine which of the two pictures being presented is bigger  ","no","<div style=""font-size:60px;"">+</div>","null","","","","","","",""
"","6573","image-keyboard-response","91","2.0.0","5803514","p2pxoypm5n6","bigger","antelope","testing us, to see whether I could determine which of the two pictures being presented is bigger  ","no","stimuli/28-Inongruent.jpg","m","","","","","right","m","true"
"","null","html-keyboard-response","92","2.0.0","5804416","p2pxoypm5n6","bigger","antelope","testing us, to see whether I could determine which of the two pictures being presented is bigger  ","no","<p>Correct!</p>","null","","","","","","",""
"","null","html-keyboard-response","93","2.0.0","5805419","p2pxoypm5n6","bigger","antelope","testing us, to see whether I could determine which of the two pictures being presented is bigger  ","no","<div style=""font-size:60px;"">+</div>","null","","","","","","",""
"","623","image-keyboard-response","94","2.0.0","5806044","p2pxoypm5n6","bigger","antelope","testing us, to see whether I could determine which of the two pictures being presented is bigger  ","no","stimuli/28-Congruent.jpg","z","","","","","left","z","true"
"","null","html-keyboard-response","95","2.0.0","5806946","p2pxoypm5n6","bigger","antelope","testing us, to see whether I could determine which of the two pictures being presented is bigger  ","no","<p>Correct!</p>","null","","","","","","",""
"","null","html-keyboard-response","96","2.0.0","5807949","p2pxoypm5n6","bigger","antelope","testing us, to see whether I could determine which of the two pictures being presented is bigger  ","no","<div style=""font-size:60px;"">+</div>","null","","","","","","",""
"","955","image-keyboard-response","97","2.0.0","5808906","p2pxoypm5n6","bigger","antelope","testing us, to see whether I could determine which of the two pictures being presented is bigger  ","no","stimuli/15-Inongruent.jpg","m","","","","","right","m","true"
"","null","html-keyboard-response","98","2.0.0","5809808","p2pxoypm5n6","bigger","antelope","testing us, to see whether I could determine which of the two pictures being presented is bigger  ","no","<p>Correct!</p>","null","","","","","","",""
"","null","html-keyboard-response","99","2.0.0","5810811","p2pxoypm5n6","bigger","antelope","testing us, to see whether I could determine which of the two pictures being presented is bigger  ","no","<div style=""font-size:60px;"">+</div>","null","","","","","","",""
"","755","image-keyboard-response","100","2.0.0","5811568","p2pxoypm5n6","bigger","antelope","testing us, to see whether I could determine which of the two pictures being presented is bigger  ","no","stimuli/24-Congruent.jpg","z","","","","","left","z","true"
"","null","html-keyboard-response","101","2.0.0","5812470","p2pxoypm5n6","bigger","antelope","testing us, to see whether I could determine which of the two pictures being presented is bigger  ","no","<p>Correct!</p>","null","","","","","","",""
"","null","html-keyboard-response","102","2.0.0","5813472","p2pxoypm5n6","bigger","antelope","testing us, to see whether I could determine which of the two pictures being presented is bigger  ","no","<div style=""font-size:60px;"">+</div>","null","","","","","","",""
"","783","image-keyboard-response","103","2.0.0","5814258","p2pxoypm5n6","bigger","antelope","testing us, to see whether I could determine which of the two pictures being presented is bigger  ","no","stimuli/15-Congruent.jpg","z","","","","","left","z","true"
"","null","html-keyboard-response","104","2.0.0","5815160","p2pxoypm5n6","bigger","antelope","testing us, to see whether I could determine which of the two pictures being presented is bigger  ","no","<p>Correct!</p>","null","","","","","","",""
"","null","html-keyboard-response","105","2.0.0","5816162","p2pxoypm5n6","bigger","antelope","testing us, to see whether I could determine which of the two pictures being presented is bigger  ","no","<div style=""font-size:60px;"">+</div>","null","","","","","","",""
"","2615","image-keyboard-response","106","2.0.0","5818779","p2pxoypm5n6","bigger","antelope","testing us, to see whether I could determine which of the two pictures being presented is bigger  ","no","stimuli/7-Congruent.jpg","z","","","","","left","z","true"
"","null","html-keyboard-response","107","2.0.0","5819681","p2pxoypm5n6","bigger","antelope","testing us, to see whether I could determine which of the two pictures being presented is bigger  ","no","<p>Correct!</p>","null","","","","","","",""
"","null","html-keyboard-response","108","2.0.0","5820683","p2pxoypm5n6","bigger","antelope","testing us, to see whether I could determine which of the two pictures being presented is bigger  ","no","<div style=""font-size:60px;"">+</div>","null","","","","","","",""
"","16372","image-keyboard-response","109","2.0.0","5837057","p2pxoypm5n6","bigger","antelope","testing us, to see whether I could determine which of the two pictures being presented is bigger  ","no","stimuli/4-Inongruent.jpg","m","","","","","right","m","true"
"","null","html-keyboard-response","110","2.0.0","5837959","p2pxoypm5n6","bigger","antelope","testing us, to see whether I could determine which of the two pictures being presented is bigger  ","no","<p>Correct!</p>","null","","","","","","",""
"","null","html-keyboard-response","111","2.0.0","5838962","p2pxoypm5n6","bigger","antelope","testing us, to see whether I could determine which of the two pictures being presented is bigger  ","no","<div style=""font-size:60px;"">+</div>","null","","","","","","",""
"","1950","image-keyboard-response","112","2.0.0","5840914","p2pxoypm5n6","bigger","antelope","testing us, to see whether I could determine which of the two pictures being presented is bigger  ","no","stimuli/12-Inongruent.jpg","m","","","","","right","m","true"
"","null","html-keyboard-response","113","2.0.0","5841817","p2pxoypm5n6","bigger","antelope","testing us, to see whether I could determine which of the two pictures being presented is bigger  ","no","<p>Correct!</p>","null","","","","","","",""
"","null","html-keyboard-response","114","2.0.0","5842819","p2pxoypm5n6","bigger","antelope","testing us, to see whether I could determine which of the two pictures being presented is bigger  ","no","<div style=""font-size:60px;"">+</div>","null","","","","","","",""
"","30004","image-keyboard-response","115","2.0.0","5872824","p2pxoypm5n6","bigger","antelope","testing us, to see whether I could determine which of the two pictures being presented is bigger  ","no","stimuli/19-Congruent.jpg","z","","","","","left","z","true"
"","null","html-keyboard-response","116","2.0.0","5873726","p2pxoypm5n6","bigger","antelope","testing us, to see whether I could determine which of the two pictures being presented is bigger  ","no","<p>Correct!</p>","null","","","","","","",""
"","null","html-keyboard-response","117","2.0.0","5874729","p2pxoypm5n6","bigger","antelope","testing us, to see whether I could determine which of the two pictures being presented is bigger  ","no","<div style=""font-size:60px;"">+</div>","null","","","","","","",""
"","1442","image-keyboard-response","118","2.0.0","5876173","p2pxoypm5n6","bigger","antelope","testing us, to see whether I could determine which of the two pictures being presented is bigger  ","no","stimuli/2-Inongruent.jpg","m","","","","","right","m","true"
"","null","html-keyboard-response","119","2.0.0","5877076","p2pxoypm5n6","bigger","antelope","testing us, to see whether I could determine which of the two pictures being presented is bigger  ","no","<p>Correct!</p>","null","","","","","","",""
"","null","html-keyboard-response","120","2.0.0","5878079","p2pxoypm5n6","bigger","antelope","testing us, to see whether I could determine which of the two pictures being presented is bigger  ","no","<div style=""font-size:60px;"">+</div>","null","","","","","","",""
"","1268","image-keyboard-response","121","2.0.0","5879349","p2pxoypm5n6","bigger","antelope","testing us, to see whether I could determine which of the two pictures being presented is bigger  ","no","stimuli/6-Inongruent.jpg","m","","","","","right","m","true"
"","null","html-keyboard-response","122","2.0.0","5880251","p2pxoypm5n6","bigger","antelope","testing us, to see whether I could determine which of the two pictures being presented is bigger  ","no","<p>Correct!</p>","null","","","","","","",""
"","null","html-keyboard-response","123","2.0.0","5881254","p2pxoypm5n6","bigger","antelope","testing us, to see whether I could determine which of the two pictures being presented is bigger  ","no","<div style=""font-size:60px;"">+</div>","null","","","","","","",""
"","819","image-keyboard-response","124","2.0.0","5882075","p2pxoypm5n6","bigger","antelope","testing us, to see whether I could determine which of the two pictures being presented is bigger  ","no","stimuli/35-Inongruent.jpg","m","","","","","right","m","true"
"","null","html-keyboard-response","125","2.0.0","5882978","p2pxoypm5n6","bigger","antelope","testing us, to see whether I could determine which of the two pictures being presented is bigger  ","no","<p>Correct!</p>","null","","","","","","",""
"","null","html-keyboard-response","126","2.0.0","5883981","p2pxoypm5n6","bigger","antelope","testing us, to see whether I could determine which of the two pictures being presented is bigger  ","no","<div style=""font-size:60px;"">+</div>","null","","","","","","",""
"","4856","image-keyboard-response","127","2.0.0","5888838","p2pxoypm5n6","bigger","antelope","testing us, to see whether I could determine which of the two pictures being presented is bigger  ","no","stimuli/27-Inongruent.jpg","m","","","","","right","m","true"
"","null","html-keyboard-response","128","2.0.0","5889740","p2pxoypm5n6","bigger","antelope","testing us, to see whether I could determine which of the two pictures being presented is bigger  ","no","<p>Correct!</p>","null","","","","","","",""
"","null","html-keyboard-response","129","2.0.0","5890743","p2pxoypm5n6","bigger","antelope","testing us, to see whether I could determine which of the two pictures being presented is bigger  ","no","<div style=""font-size:60px;"">+</div>","null","","","","","","",""
"","1588","image-keyboard-response","130","2.0.0","5892333","p2pxoypm5n6","bigger","antelope","testing us, to see whether I could determine which of the two pictures being presented is bigger  ","no","stimuli/9-Congruent.jpg","z","","","","","left","z","true"
"","null","html-keyboard-response","131","2.0.0","5893236","p2pxoypm5n6","bigger","antelope","testing us, to see whether I could determine which of the two pictures being presented is bigger  ","no","<p>Correct!</p>","null","","","","","","",""
"","null","html-keyboard-response","132","2.0.0","5894239","p2pxoypm5n6","bigger","antelope","testing us, to see whether I could determine which of the two pictures being presented is bigger  ","no","<div style=""font-size:60px;"">+</div>","null","","","","","","",""
"","1260","image-keyboard-response","133","2.0.0","5895501","p2pxoypm5n6","bigger","antelope","testing us, to see whether I could determine which of the two pictures being presented is bigger  ","no","stimuli/20-Inongruent.jpg","m","","","","","right","m","true"
"","null","html-keyboard-response","134","2.0.0","5896404","p2pxoypm5n6","bigger","antelope","testing us, to see whether I could determine which of the two pictures being presented is bigger  ","no","<p>Correct!</p>","null","","","","","","",""
"","null","html-keyboard-response","135","2.0.0","5897406","p2pxoypm5n6","bigger","antelope","testing us, to see whether I could determine which of the two pictures being presented is bigger  ","no","<div style=""font-size:60px;"">+</div>","null","","","","","","",""
"","595","image-keyboard-response","136","2.0.0","5898003","p2pxoypm5n6","bigger","antelope","testing us, to see whether I could determine which of the two pictures being presented is bigger  ","no","stimuli/27-Congruent.jpg","z","","","","","left","z","true"
"","null","html-keyboard-response","137","2.0.0","5898905","p2pxoypm5n6","bigger","antelope","testing us, to see whether I could determine which of the two pictures being presented is bigger  ","no","<p>Correct!</p>","null","","","","","","",""
"","null","html-keyboard-response","138","2.0.0","5899908","p2pxoypm5n6","bigger","antelope","testing us, to see whether I could determine which of the two pictures being presented is bigger  ","no","<div style=""font-size:60px;"">+</div>","null","","","","","","",""
"","708","image-keyboard-response","139","2.0.0","5900617","p2pxoypm5n6","bigger","antelope","testing us, to see whether I could determine which of the two pictures being presented is bigger  ","no","stimuli/26-Congruent.jpg","z","","","","","left","z","true"
"","null","html-keyboard-response","140","2.0.0","5901520","p2pxoypm5n6","bigger","antelope","testing us, to see whether I could determine which of the two pictures being presented is bigger  ","no","<p>Correct!</p>","null","","","","","","",""
"","null","html-keyboard-response","141","2.0.0","5902522","p2pxoypm5n6","bigger","antelope","testing us, to see whether I could determine which of the two pictures being presented is bigger  ","no","<div style=""font-size:60px;"">+</div>","null","","","","","","",""
"","632","image-keyboard-response","142","2.0.0","5903156","p2pxoypm5n6","bigger","antelope","testing us, to see whether I could determine which of the two pictures being presented is bigger  ","no","stimuli/36-Inongruent.jpg","m","","","","","right","m","true"
"","null","html-keyboard-response","143","2.0.0","5904058","p2pxoypm5n6","bigger","antelope","testing us, to see whether I could determine which of the two pictures being presented is bigger  ","no","<p>Correct!</p>","null","","","","","","",""
"","null","html-keyboard-response","144","2.0.0","5905061","p2pxoypm5n6","bigger","antelope","testing us, to see whether I could determine which of the two pictures being presented is bigger  ","no","<div style=""font-size:60px;"">+</div>","null","","","","","","",""
"","744","image-keyboard-response","145","2.0.0","5905806","p2pxoypm5n6","bigger","antelope","testing us, to see whether I could determine which of the two pictures being presented is bigger  ","no","stimuli/28-Inongruent.jpg","m","","","","","right","m","true"
"","null","html-keyboard-response","146","2.0.0","5906709","p2pxoypm5n6","bigger","antelope","testing us, to see whether I could determine which of the two pictures being presented is bigger  ","no","<p>Correct!</p>","null","","","","","","",""
"","null","html-keyboard-response","147","2.0.0","5907710","p2pxoypm5n6","bigger","antelope","testing us, to see whether I could determine which of the two pictures being presented is bigger  ","no","<div style=""font-size:60px;"">+</div>","null","","","","","","",""
"","783","image-keyboard-response","148","2.0.0","5908494","p2pxoypm5n6","bigger","antelope","testing us, to see whether I could determine which of the two pictures being presented is bigger  ","no","stimuli/19-Congruent.jpg","z","","","","","left","z","true"
"","null","html-keyboard-response","149","2.0.0","5909396","p2pxoypm5n6","bigger","antelope","testing us, to see whether I could determine which of the two pictures being presented is bigger  ","no","<p>Correct!</p>","null","","","","","","",""
"","null","html-keyboard-response","150","2.0.0","5910399","p2pxoypm5n6","bigger","antelope","testing us, to see whether I could determine which of the two pictures being presented is bigger  ","no","<div style=""font-size:60px;"">+</div>","null","","","","","","",""
"","706","image-keyboard-response","151","2.0.0","5911107","p2pxoypm5n6","bigger","antelope","testing us, to see whether I could determine which of the two pictures being presented is bigger  ","no","stimuli/22-Inongruent.jpg","m","","","","","right","m","true"
"","null","html-keyboard-response","152","2.0.0","5912008","p2pxoypm5n6","bigger","antelope","testing us, to see whether I could determine which of the two pictures being presented is bigger  ","no","<p>Correct!</p>","null","","","","","","",""
"","null","html-keyboard-response","153","2.0.0","5913011","p2pxoypm5n6","bigger","antelope","testing us, to see whether I could determine which of the two pictures being presented is bigger  ","no","<div style=""font-size:60px;"">+</div>","null","","","","","","",""
"","948","image-keyboard-response","154","2.0.0","5913960","p2pxoypm5n6","bigger","antelope","testing us, to see whether I could determine which of the two pictures being presented is bigger  ","no","stimuli/22-Congruent.jpg","z","","","","","left","z","true"
"","null","html-keyboard-response","155","2.0.0","5914862","p2pxoypm5n6","bigger","antelope","testing us, to see whether I could determine which of the two pictures being presented is bigger  ","no","<p>Correct!</p>","null","","","","","","",""
"","null","html-keyboard-response","156","2.0.0","5915865","p2pxoypm5n6","bigger","antelope","testing us, to see whether I could determine which of the two pictures being presented is bigger  ","no","<div style=""font-size:60px;"">+</div>","null","","","","","","",""
"","646","image-keyboard-response","157","2.0.0","5916513","p2pxoypm5n6","bigger","antelope","testing us, to see whether I could determine which of the two pictures being presented is bigger  ","no","stimuli/24-Congruent.jpg","z","","","","","left","z","true"
"","null","html-keyboard-response","158","2.0.0","5917416","p2pxoypm5n6","bigger","antelope","testing us, to see whether I could determine which of the two pictures being presented is bigger  ","no","<p>Correct!</p>","null","","","","","","",""
"","null","html-keyboard-response","159","2.0.0","5918418","p2pxoypm5n6","bigger","antelope","testing us, to see whether I could determine which of the two pictures being presented is bigger  ","no","<div style=""font-size:60px;"">+</div>","null","","","","","","",""
"","781","image-keyboard-response","160","2.0.0","5919201","p2pxoypm5n6","bigger","antelope","testing us, to see whether I could determine which of the two pictures being presented is bigger  ","no","stimuli/27-Congruent.jpg","z","","","","","left","z","true"
"","null","html-keyboard-response","161","2.0.0","5920104","p2pxoypm5n6","bigger","antelope","testing us, to see whether I could determine which of the two pictures being presented is bigger  ","no","<p>Correct!</p>","null","","","","","","",""
"","null","html-keyboard-response","162","2.0.0","5921106","p2pxoypm5n6","bigger","antelope","testing us, to see whether I could determine which of the two pictures being presented is bigger  ","no","<div style=""font-size:60px;"">+</div>","null","","","","","","",""
"","2723","image-keyboard-response","163","2.0.0","5923830","p2pxoypm5n6","bigger","antelope","testing us, to see whether I could determine which of the two pictures being presented is bigger  ","no","stimuli/13-Inongruent.jpg","m","","","","","right","m","true"
"","null","html-keyboard-response","164","2.0.0","5924733","p2pxoypm5n6","bigger","antelope","testing us, to see whether I could determine which of the two pictures being presented is bigger  ","no","<p>Correct!</p>","null","","","","","","",""
"","null","html-keyboard-response","165","2.0.0","5925735","p2pxoypm5n6","bigger","antelope","testing us, to see whether I could determine which of the two pictures being presented is bigger  ","no","<div style=""font-size:60px;"">+</div>","null","","","","","","",""
"","752","image-keyboard-response","166","2.0.0","5926488","p2pxoypm5n6","bigger","antelope","testing us, to see whether I could determine which of the two pictures being presented is bigger  ","no","stimuli/6-Inongruent.jpg","m","","","","","right","m","true"
"","null","html-keyboard-response","167","2.0.0","5927391","p2pxoypm5n6","bigger","antelope","testing us, to see whether I could determine which of the two pictures being presented is bigger  ","no","<p>Correct!</p>","null","","","","","","",""
"","null","html-keyboard-response","168","2.0.0","5928394","p2pxoypm5n6","bigger","antelope","testing us, to see whether I could determine which of the two pictures being presented is bigger  ","no","<div style=""font-size:60px;"">+</div>","null","","","","","","",""
"","1308","image-keyboard-response","169","2.0.0","5929705","p2pxoypm5n6","bigger","antelope","testing us, to see whether I could determine which of the two pictures being presented is bigger  ","no","stimuli/2-Congruent.jpg","z","","","","","left","z","true"
"","null","html-keyboard-response","170","2.0.0","5930607","p2pxoypm5n6","bigger","antelope","testing us, to see whether I could determine which of the two pictures being presented is bigger  ","no","<p>Correct!</p>","null","","","","","","",""
"","null","html-keyboard-response","171","2.0.0","5931610","p2pxoypm5n6","bigger","antelope","testing us, to see whether I could determine which of the two pictures being presented is bigger  ","no","<div style=""font-size:60px;"">+</div>","null","","","","","","",""
"","1404","image-keyboard-response","172","2.0.0","5933015","p2pxoypm5n6","bigger","antelope","testing us, to see whether I could determine which of the two pictures being presented is bigger  ","no","stimuli/12-Congruent.jpg","z","","","","","left","z","true"
"","null","html-keyboard-response","173","2.0.0","5933918","p2pxoypm5n6","bigger","antelope","testing us, to see whether I could determine which of the two pictures being presented is bigger  ","no","<p>Correct!</p>","null","","","","","","",""
"","null","html-keyboard-response","174","2.0.0","5934921","p2pxoypm5n6","bigger","antelope","testing us, to see whether I could determine which of the two pictures being presented is bigger  ","no","<div style=""font-size:60px;"">+</div>","null","","","","","","",""
"","12391","image-keyboard-response","175","2.0.0","5947314","p2pxoypm5n6","bigger","antelope","testing us, to see whether I could determine which of the two pictures being presented is bigger  ","no","stimuli/35-Inongruent.jpg","m","","","","","right","m","true"
"","null","html-keyboard-response","176","2.0.0","5948216","p2pxoypm5n6","bigger","antelope","testing us, to see whether I could determine which of the two pictures being presented is bigger  ","no","<p>Correct!</p>","null","","","","","","",""
"","null","html-keyboard-response","177","2.0.0","5949219","p2pxoypm5n6","bigger","antelope","testing us, to see whether I could determine which of the two pictures being presented is bigger  ","no","<div style=""font-size:60px;"">+</div>","null","","","","","","",""
"","832","image-keyboard-response","178","2.0.0","5950053","p2pxoypm5n6","bigger","antelope","testing us, to see whether I could determine which of the two pictures being presented is bigger  ","no","stimuli/33-Congruent.jpg","z","","","","","left","z","true"
"","null","html-keyboard-response","179","2.0.0","5950955","p2pxoypm5n6","bigger","antelope","testing us, to see whether I could determine which of the two pictures being presented is bigger  ","no","<p>Correct!</p>","null","","","","","","",""
"","null","html-keyboard-response","180","2.0.0","5951957","p2pxoypm5n6","bigger","antelope","testing us, to see whether I could determine which of the two pictures being presented is bigger  ","no","<div style=""font-size:60px;"">+</div>","null","","","","","","",""
"","769","image-keyboard-response","181","2.0.0","5952728","p2pxoypm5n6","bigger","antelope","testing us, to see whether I could determine which of the two pictures being presented is bigger  ","no","stimuli/11-Congruent.jpg","z","","","","","left","z","true"
"","null","html-keyboard-response","182","2.0.0","5953630","p2pxoypm5n6","bigger","antelope","testing us, to see whether I could determine which of the two pictures being presented is bigger  ","no","<p>Correct!</p>","null","","","","","","",""
"","null","html-keyboard-response","183","2.0.0","5954633","p2pxoypm5n6","bigger","antelope","testing us, to see whether I could determine which of the two pictures being presented is bigger  ","no","<div style=""font-size:60px;"">+</div>","null","","","","","","",""
"","607","image-keyboard-response","184","2.0.0","5955242","p2pxoypm5n6","bigger","antelope","testing us, to see whether I could determine which of the two pictures being presented is bigger  ","no","stimuli/10-Congruent.jpg","z","","","","","left","z","true"
"","null","html-keyboard-response","185","2.0.0","5956145","p2pxoypm5n6","bigger","antelope","testing us, to see whether I could determine which of the two pictures being presented is bigger  ","no","<p>Correct!</p>","null","","","","","","",""
"","null","html-keyboard-response","186","2.0.0","5957147","p2pxoypm5n6","bigger","antelope","testing us, to see whether I could determine which of the two pictures being presented is bigger  ","no","<div style=""font-size:60px;"">+</div>","null","","","","","","",""
"","16944","image-keyboard-response","187","2.0.0","5974092","p2pxoypm5n6","bigger","antelope","testing us, to see whether I could determine which of the two pictures being presented is bigger  ","no","stimuli/30-Inongruent.jpg","m","","","","","right","m","true"
"","null","html-keyboard-response","188","2.0.0","5974994","p2pxoypm5n6","bigger","antelope","testing us, to see whether I could determine which of the two pictures being presented is bigger  ","no","<p>Correct!</p>","null","","","","","","",""
"","null","html-keyboard-response","189","2.0.0","5975997","p2pxoypm5n6","bigger","antelope","testing us, to see whether I could determine which of the two pictures being presented is bigger  ","no","<div style=""font-size:60px;"">+</div>","null","","","","","","",""
"","5276","image-keyboard-response","190","2.0.0","5981275","p2pxoypm5n6","bigger","antelope","testing us, to see whether I could determine which of the two pictures being presented is bigger  ","no","stimuli/25-Inongruent.jpg","m","","","","","right","m","true"
"","null","html-keyboard-response","191","2.0.0","5982177","p2pxoypm5n6","bigger","antelope","testing us, to see whether I could determine which of the two pictures being presented is bigger  ","no","<p>Correct!</p>","null","","","","","","",""
"","null","html-keyboard-response","192","2.0.0","5983179","p2pxoypm5n6","bigger","antelope","testing us, to see whether I could determine which of the two pictures being presented is bigger  ","no","<div style=""font-size:60px;"">+</div>","null","","","","","","",""
"","573","image-keyboard-response","193","2.0.0","5983754","p2pxoypm5n6","bigger","antelope","testing us, to see whether I could determine which of the two pictures being presented is bigger  ","no","stimuli/19-Inongruent.jpg","m","","","","","right","m","true"
"","null","html-keyboard-response","194","2.0.0","5984656","p2pxoypm5n6","bigger","antelope","testing us, to see whether I could determine which of the two pictures being presented is bigger  ","no","<p>Correct!</p>","null","","","","","","",""
"","null","html-keyboard-response","195","2.0.0","5985659","p2pxoypm5n6","bigger","antelope","testing us, to see whether I could determine which of the two pictures being presented is bigger  ","no","<div style=""font-size:60px;"">+</div>","null","","","","","","",""
"","717","image-keyboard-response","196","2.0.0","5986378","p2pxoypm5n6","bigger","antelope","testing us, to see whether I could determine which of the two pictures being presented is bigger  ","no","stimuli/29-Inongruent.jpg","m","","","","","right","m","true"
"","null","html-keyboard-response","197","2.0.0","5987280","p2pxoypm5n6","bigger","antelope","testing us, to see whether I could determine which of the two pictures being presented is bigger  ","no","<p>Correct!</p>","null","","","","","","",""
"","null","html-keyboard-response","198","2.0.0","5988282","p2pxoypm5n6","bigger","antelope","testing us, to see whether I could determine which of the two pictures being presented is bigger  ","no","<div style=""font-size:60px;"">+</div>","null","","","","","","",""
"","7682","image-keyboard-response","199","2.0.0","5995966","p2pxoypm5n6","bigger","antelope","testing us, to see whether I could determine which of the two pictures being presented is bigger  ","no","stimuli/25-Inongruent.jpg","m","","","","","right","m","true"
"","null","html-keyboard-response","200","2.0.0","5996868","p2pxoypm5n6","bigger","antelope","testing us, to see whether I could determine which of the two pictures being presented is bigger  ","no","<p>Correct!</p>","null","","","","","","",""
"","null","html-keyboard-response","201","2.0.0","5997871","p2pxoypm5n6","bigger","antelope","testing us, to see whether I could determine which of the two pictures being presented is bigger  ","no","<div style=""font-size:60px;"">+</div>","null","","","","","","",""
"","1025","image-keyboard-response","202","2.0.0","5998898","p2pxoypm5n6","bigger","antelope","testing us, to see whether I could determine which of the two pictures being presented is bigger  ","no","stimuli/31-Congruent.jpg","z","","","","","left","z","true"
"","null","html-keyboard-response","203","2.0.0","5999800","p2pxoypm5n6","bigger","antelope","testing us, to see whether I could determine which of the two pictures being presented is bigger  ","no","<p>Correct!</p>","null","","","","","","",""
"","null","html-keyboard-response","204","2.0.0","6000803","p2pxoypm5n6","bigger","antelope","testing us, to see whether I could determine which of the two pictures being presented is bigger  ","no","<div style=""font-size:60px;"">+</div>","null","","","","","","",""
"","1280","image-keyboard-response","205","2.0.0","6002085","p2pxoypm5n6","bigger","antelope","testing us, to see whether I could determine which of the two pictures being presented is bigger  ","no","stimuli/10-Inongruent.jpg","m","","","","","right","m","true"
"","null","html-keyboard-response","206","2.0.0","6002988","p2pxoypm5n6","bigger","antelope","testing us, to see whether I could determine which of the two pictures being presented is bigger  ","no","<p>Correct!</p>","null","","","","","","",""
"","null","html-keyboard-response","207","2.0.0","6003990","p2pxoypm5n6","bigger","antelope","testing us, to see whether I could determine which of the two pictures being presented is bigger  ","no","<div style=""font-size:60px;"">+</div>","null","","","","","","",""
"","1404","image-keyboard-response","208","2.0.0","6005396","p2pxoypm5n6","bigger","antelope","testing us, to see whether I could determine which of the two pictures being presented is bigger  ","no","stimuli/30-Inongruent.jpg","m","","","","","right","m","true"
"","null","html-keyboard-response","209","2.0.0","6006298","p2pxoypm5n6","bigger","antelope","testing us, to see whether I could determine which of the two pictures being presented is bigger  ","no","<p>Correct!</p>","null","","","","","","",""
"","null","html-keyboard-response","210","2.0.0","6007301","p2pxoypm5n6","bigger","antelope","testing us, to see whether I could determine which of the two pictures being presented is bigger  ","no","<div style=""font-size:60px;"">+</div>","null","","","","","","",""
"","1381","image-keyboard-response","211","2.0.0","6008683","p2pxoypm5n6","bigger","antelope","testing us, to see whether I could determine which of the two pictures being presented is bigger  ","no","stimuli/8-Congruent.jpg","z","","","","","left","z","true"
"","null","html-keyboard-response","212","2.0.0","6009584","p2pxoypm5n6","bigger","antelope","testing us, to see whether I could determine which of the two pictures being presented is bigger  ","no","<p>Correct!</p>","null","","","","","","",""
"","null","html-keyboard-response","213","2.0.0","6010587","p2pxoypm5n6","bigger","antelope","testing us, to see whether I could determine which of the two pictures being presented is bigger  ","no","<div style=""font-size:60px;"">+</div>","null","","","","","","",""
"","3467","image-keyboard-response","214","2.0.0","6014056","p2pxoypm5n6","bigger","antelope","testing us, to see whether I could determine which of the two pictures being presented is bigger  ","no","stimuli/11-Inongruent.jpg","m","","","","","right","m","true"
"","null","html-keyboard-response","215","2.0.0","6014958","p2pxoypm5n6","bigger","antelope","testing us, to see whether I could determine which of the two pictures being presented is bigger  ","no","<p>Correct!</p>","null","","","","","","",""
"","null","html-keyboard-response","216","2.0.0","6015960","p2pxoypm5n6","bigger","antelope","testing us, to see whether I could determine which of the two pictures being presented is bigger  ","no","<div style=""font-size:60px;"">+</div>","null","","","","","","",""
"","4821","image-keyboard-response","217","2.0.0","6020784","p2pxoypm5n6","bigger","antelope","testing us, to see whether I could determine which of the two pictures being presented is bigger  ","no","stimuli/34-Inongruent.jpg","m","","","","","right","m","true"
"","null","html-keyboard-response","218","2.0.0","6021686","p2pxoypm5n6","bigger","antelope","testing us, to see whether I could determine which of the two pictures being presented is bigger  ","no","<p>Correct!</p>","null","","","","","","",""
"","null","html-keyboard-response","219","2.0.0","6022690","p2pxoypm5n6","bigger","antelope","testing us, to see whether I could determine which of the two pictures being presented is bigger  ","no","<div style=""font-size:60px;"">+</div>","null","","","","","","",""
"","998","image-keyboard-response","220","2.0.0","6023690","p2pxoypm5n6","bigger","antelope","testing us, to see whether I could determine which of the two pictures being presented is bigger  ","no","stimuli/13-Congruent.jpg","z","","","","","left","z","true"
"","null","html-keyboard-response","221","2.0.0","6024593","p2pxoypm5n6","bigger","antelope","testing us, to see whether I could determine which of the two pictures being presented is bigger  ","no","<p>Correct!</p>","null","","","","","","",""
"","null","html-keyboard-response","222","2.0.0","6025595","p2pxoypm5n6","bigger","antelope","testing us, to see whether I could determine which of the two pictures being presented is bigger  ","no","<div style=""font-size:60px;"">+</div>","null","","","","","","",""
"","1165","image-keyboard-response","223","2.0.0","6026762","p2pxoypm5n6","bigger","antelope","testing us, to see whether I could determine which of the two pictures being presented is bigger  ","no","stimuli/11-Inongruent.jpg","m","","","","","right","m","true"
"","null","html-keyboard-response","224","2.0.0","6027664","p2pxoypm5n6","bigger","antelope","testing us, to see whether I could determine which of the two pictures being presented is bigger  ","no","<p>Correct!</p>","null","","","","","","",""
"","null","html-keyboard-response","225","2.0.0","6028666","p2pxoypm5n6","bigger","antelope","testing us, to see whether I could determine which of the two pictures being presented is bigger  ","no","<div style=""font-size:60px;"">+</div>","null","","","","","","",""
"","756","image-keyboard-response","226","2.0.0","6029424","p2pxoypm5n6","bigger","antelope","testing us, to see whether I could determine which of the two pictures being presented is bigger  ","no","stimuli/32-Inongruent.jpg","m","","","","","right","m","true"
"","null","html-keyboard-response","227","2.0.0","6030327","p2pxoypm5n6","bigger","antelope","testing us, to see whether I could determine which of the two pictures being presented is bigger  ","no","<p>Correct!</p>","null","","","","","","",""
"","null","html-keyboard-response","228","2.0.0","6031329","p2pxoypm5n6","bigger","antelope","testing us, to see whether I could determine which of the two pictures being presented is bigger  ","no","<div style=""font-size:60px;"">+</div>","null","","","","","","",""
"","2217","image-keyboard-response","229","2.0.0","6033547","p2pxoypm5n6","bigger","antelope","testing us, to see whether I could determine which of the two pictures being presented is bigger  ","no","stimuli/31-Inongruent.jpg","m","","","","","right","m","true"
"","null","html-keyboard-response","230","2.0.0","6034449","p2pxoypm5n6","bigger","antelope","testing us, to see whether I could determine which of the two pictures being presented is bigger  ","no","<p>Correct!</p>","null","","","","","","",""
"","null","html-keyboard-response","231","2.0.0","6035451","p2pxoypm5n6","bigger","antelope","testing us, to see whether I could determine which of the two pictures being presented is bigger  ","no","<div style=""font-size:60px;"">+</div>","null","","","","","","",""
"","14419","image-keyboard-response","232","2.0.0","6049871","p2pxoypm5n6","bigger","antelope","testing us, to see whether I could determine which of the two pictures being presented is bigger  ","no","stimuli/6-Congruent.jpg","z","","","","","left","z","true"
"","null","html-keyboard-response","233","2.0.0","6050774","p2pxoypm5n6","bigger","antelope","testing us, to see whether I could determine which of the two pictures being presented is bigger  ","no","<p>Correct!</p>","null","","","","","","",""
"","null","html-keyboard-response","234","2.0.0","6051776","p2pxoypm5n6","bigger","antelope","testing us, to see whether I could determine which of the two pictures being presented is bigger  ","no","<div style=""font-size:60px;"">+</div>","null","","","","","","",""
"","918","image-keyboard-response","235","2.0.0","6052695","p2pxoypm5n6","bigger","antelope","testing us, to see whether I could determine which of the two pictures being presented is bigger  ","no","stimuli/32-Congruent.jpg","z","","","","","left","z","true"
"","null","html-keyboard-response","236","2.0.0","6053598","p2pxoypm5n6","bigger","antelope","testing us, to see whether I could determine which of the two pictures being presented is bigger  ","no","<p>Correct!</p>","null","","","","","","",""
"","null","html-keyboard-response","237","2.0.0","6054600","p2pxoypm5n6","bigger","antelope","testing us, to see whether I could determine which of the two pictures being presented is bigger  ","no","<div style=""font-size:60px;"">+</div>","null","","","","","","",""
"","4944","image-keyboard-response","238","2.0.0","6059546","p2pxoypm5n6","bigger","antelope","testing us, to see whether I could determine which of the two pictures being presented is bigger  ","no","stimuli/14-Inongruent.jpg","m","","","","","right","m","true"
"","null","html-keyboard-response","239","2.0.0","6060448","p2pxoypm5n6","bigger","antelope","testing us, to see whether I could determine which of the two pictures being presented is bigger  ","no","<p>Correct!</p>","null","","","","","","",""
"","null","html-keyboard-response","240","2.0.0","6061451","p2pxoypm5n6","bigger","antelope","testing us, to see whether I could determine which of the two pictures being presented is bigger  ","no","<div style=""font-size:60px;"">+</div>","null","","","","","","",""
"","763","image-keyboard-response","241","2.0.0","6062216","p2pxoypm5n6","bigger","antelope","testing us, to see whether I could determine which of the two pictures being presented is bigger  ","no","stimuli/21-Congruent.jpg","z","","","","","left","z","true"
"","null","html-keyboard-response","242","2.0.0","6063118","p2pxoypm5n6","bigger","antelope","testing us, to see whether I could determine which of the two pictures being presented is bigger  ","no","<p>Correct!</p>","null","","","","","","",""
"","null","html-keyboard-response","243","2.0.0","6064121","p2pxoypm5n6","bigger","antelope","testing us, to see whether I could determine which of the two pictures being presented is bigger  ","no","<div style=""font-size:60px;"">+</div>","null","","","","","","",""
"","1060","image-keyboard-response","244","2.0.0","6065182","p2pxoypm5n6","bigger","antelope","testing us, to see whether I could determine which of the two pictures being presented is bigger  ","no","stimuli/24-Inongruent.jpg","m","","","","","right","m","true"
"","null","html-keyboard-response","245","2.0.0","6066085","p2pxoypm5n6","bigger","antelope","testing us, to see whether I could determine which of the two pictures being presented is bigger  ","no","<p>Correct!</p>","null","","","","","","",""
"","null","html-keyboard-response","246","2.0.0","6067087","p2pxoypm5n6","bigger","antelope","testing us, to see whether I could determine which of the two pictures being presented is bigger  ","no","<div style=""font-size:60px;"">+</div>","null","","","","","","",""
"","1509","image-keyboard-response","247","2.0.0","6068598","p2pxoypm5n6","bigger","antelope","testing us, to see whether I could determine which of the two pictures being presented is bigger  ","no","stimuli/16-Congruent.jpg","z","","","","","left","z","true"
"","null","html-keyboard-response","248","2.0.0","6069501","p2pxoypm5n6","bigger","antelope","testing us, to see whether I could determine which of the two pictures being presented is bigger  ","no","<p>Correct!</p>","null","","","","","","",""
"","null","html-keyboard-response","249","2.0.0","6070503","p2pxoypm5n6","bigger","antelope","testing us, to see whether I could determine which of the two pictures being presented is bigger  ","no","<div style=""font-size:60px;"">+</div>","null","","","","","","",""
"","984","image-keyboard-response","250","2.0.0","6071489","p2pxoypm5n6","bigger","antelope","testing us, to see whether I could determine which of the two pictures being presented is bigger  ","no","stimuli/3-Congruent.jpg","z","","","","","left","z","true"
"","null","html-keyboard-response","251","2.0.0","6072392","p2pxoypm5n6","bigger","antelope","testing us, to see whether I could determine which of the two pictures being presented is bigger  ","no","<p>Correct!</p>","null","","","","","","",""
"","null","html-keyboard-response","252","2.0.0","6073395","p2pxoypm5n6","bigger","antelope","testing us, to see whether I could determine which of the two pictures being presented is bigger  ","no","<div style=""font-size:60px;"">+</div>","null","","","","","","",""
"","2575","image-keyboard-response","253","2.0.0","6075972","p2pxoypm5n6","bigger","antelope","testing us, to see whether I could determine which of the two pictures being presented is bigger  ","no","stimuli/16-Congruent.jpg","z","","","","","left","z","true"
"","null","html-keyboard-response","254","2.0.0","6076874","p2pxoypm5n6","bigger","antelope","testing us, to see whether I could determine which of the two pictures being presented is bigger  ","no","<p>Correct!</p>","null","","","","","","",""
"","null","html-keyboard-response","255","2.0.0","6077877","p2pxoypm5n6","bigger","antelope","testing us, to see whether I could determine which of the two pictures being presented is bigger  ","no","<div style=""font-size:60px;"">+</div>","null","","","","","","",""
"","868","image-keyboard-response","256","2.0.0","6078747","p2pxoypm5n6","bigger","antelope","testing us, to see whether I could determine which of the two pictures being presented is bigger  ","no","stimuli/26-Inongruent.jpg","m","","","","","right","m","true"
"","null","html-keyboard-response","257","2.0.0","6079649","p2pxoypm5n6","bigger","antelope","testing us, to see whether I could determine which of the two pictures being presented is bigger  ","no","<p>Correct!</p>","null","","","","","","",""
"","null","html-keyboard-response","258","2.0.0","6080652","p2pxoypm5n6","bigger","antelope","testing us, to see whether I could determine which of the two pictures being presented is bigger  ","no","<div style=""font-size:60px;"">+</div>","null","","","","","","",""
"","3025","image-keyboard-response","259","2.0.0","6083679","p2pxoypm5n6","bigger","antelope","testing us, to see whether I could determine which of the two pictures being presented is bigger  ","no","stimuli/29-Inongruent.jpg","m","","","","","right","m","true"
"","null","html-keyboard-response","260","2.0.0","6084581","p2pxoypm5n6","bigger","antelope","testing us, to see whether I could determine which of the two pictures being presented is bigger  ","no","<p>Correct!</p>","null","","","","","","",""
"","null","html-keyboard-response","261","2.0.0","6085584","p2pxoypm5n6","bigger","antelope","testing us, to see whether I could determine which of the two pictures being presented is bigger  ","no","<div style=""font-size:60px;"">+</div>","null","","","","","","",""
"","631","image-keyboard-response","262","2.0.0","6086217","p2pxoypm5n6","bigger","antelope","testing us, to see whether I could determine which of the two pictures being presented is bigger  ","no","stimuli/12-Congruent.jpg","z","","","","","left","z","true"
"","null","html-keyboard-response","263","2.0.0","6087119","p2pxoypm5n6","bigger","antelope","testing us, to see whether I could determine which of the two pictures being presented is bigger  ","no","<p>Correct!</p>","null","","","","","","",""
"","null","html-keyboard-response","264","2.0.0","6088123","p2pxoypm5n6","bigger","antelope","testing us, to see whether I could determine which of the two pictures being presented is bigger  ","no","<div style=""font-size:60px;"">+</div>","null","","","","","","",""
"","13422","image-keyboard-response","265","2.0.0","6101546","p2pxoypm5n6","bigger","antelope","testing us, to see whether I could determine which of the two pictures being presented is bigger  ","no","stimuli/17-Congruent.jpg","z","","","","","left","z","true"
"","null","html-keyboard-response","266","2.0.0","6102448","p2pxoypm5n6","bigger","antelope","testing us, to see whether I could determine which of the two pictures being presented is bigger  ","no","<p>Correct!</p>","null","","","","","","",""
"","null","html-keyboard-response","267","2.0.0","6103450","p2pxoypm5n6","bigger","antelope","testing us, to see whether I could determine which of the two pictures being presented is bigger  ","no","<div style=""font-size:60px;"">+</div>","null","","","","","","",""
"","2372","image-keyboard-response","268","2.0.0","6105824","p2pxoypm5n6","bigger","antelope","testing us, to see whether I could determine which of the two pictures being presented is bigger  ","no","stimuli/5-Inongruent.jpg","m","","","","","right","m","true"
"","null","html-keyboard-response","269","2.0.0","6106727","p2pxoypm5n6","bigger","antelope","testing us, to see whether I could determine which of the two pictures being presented is bigger  ","no","<p>Correct!</p>","null","","","","","","",""
"","null","html-keyboard-response","270","2.0.0","6107729","p2pxoypm5n6","bigger","antelope","testing us, to see whether I could determine which of the two pictures being presented is bigger  ","no","<div style=""font-size:60px;"">+</div>","null","","","","","","",""
"","8452","image-keyboard-response","271","2.0.0","6116183","p2pxoypm5n6","bigger","antelope","testing us, to see whether I could determine which of the two pictures being presented is bigger  ","no","stimuli/14-Congruent.jpg","z","","","","","left","z","true"
"","null","html-keyboard-response","272","2.0.0","6117085","p2pxoypm5n6","bigger","antelope","testing us, to see whether I could determine which of the two pictures being presented is bigger  ","no","<p>Correct!</p>","null","","","","","","",""
"","null","html-keyboard-response","273","2.0.0","6118088","p2pxoypm5n6","bigger","antelope","testing us, to see whether I could determine which of the two pictures being presented is bigger  ","no","<div style=""font-size:60px;"">+</div>","null","","","","","","",""
"","825","image-keyboard-response","274","2.0.0","6118915","p2pxoypm5n6","bigger","antelope","testing us, to see whether I could determine which of the two pictures being presented is bigger  ","no","stimuli/24-Inongruent.jpg","m","","","","","right","m","true"
"","null","html-keyboard-response","275","2.0.0","6119817","p2pxoypm5n6","bigger","antelope","testing us, to see whether I could determine which of the two pictures being presented is bigger  ","no","<p>Correct!</p>","null","","","","","","",""
"","null","html-keyboard-response","276","2.0.0","6120820","p2pxoypm5n6","bigger","antelope","testing us, to see whether I could determine which of the two pictures being presented is bigger  ","no","<div style=""font-size:60px;"">+</div>","null","","","","","","",""
"","727","image-keyboard-response","277","2.0.0","6121549","p2pxoypm5n6","bigger","antelope","testing us, to see whether I could determine which of the two pictures being presented is bigger  ","no","stimuli/17-Inongruent.jpg","m","","","","","right","m","true"
"","null","html-keyboard-response","278","2.0.0","6122452","p2pxoypm5n6","bigger","antelope","testing us, to see whether I could determine which of the two pictures being presented is bigger  ","no","<p>Correct!</p>","null","","","","","","",""
"","null","html-keyboard-response","279","2.0.0","6123454","p2pxoypm5n6","bigger","antelope","testing us, to see whether I could determine which of the two pictures being presented is bigger  ","no","<div style=""font-size:60px;"">+</div>","null","","","","","","",""
"","2131","image-keyboard-response","280","2.0.0","6125587","p2pxoypm5n6","bigger","antelope","testing us, to see whether I could determine which of the two pictures being presented is bigger  ","no","stimuli/25-Congruent.jpg","z","","","","","left","z","true"
"","null","html-keyboard-response","281","2.0.0","6126490","p2pxoypm5n6","bigger","antelope","testing us, to see whether I could determine which of the two pictures being presented is bigger  ","no","<p>Correct!</p>","null","","","","","","",""
"","null","html-keyboard-response","282","2.0.0","6127492","p2pxoypm5n6","bigger","antelope","testing us, to see whether I could determine which of the two pictures being presented is bigger  ","no","<div style=""font-size:60px;"">+</div>","null","","","","","","",""
"","1146","image-keyboard-response","283","2.0.0","6128640","p2pxoypm5n6","bigger","antelope","testing us, to see whether I could determine which of the two pictures being presented is bigger  ","no","stimuli/33-Congruent.jpg","z","","","","","left","z","true"
"","null","html-keyboard-response","284","2.0.0","6129542","p2pxoypm5n6","bigger","antelope","testing us, to see whether I could determine which of the two pictures being presented is bigger  ","no","<p>Correct!</p>","null","","","","","","",""
"","null","html-keyboard-response","285","2.0.0","6130544","p2pxoypm5n6","bigger","antelope","testing us, to see whether I could determine which of the two pictures being presented is bigger  ","no","<div style=""font-size:60px;"">+</div>","null","","","","","","",""
"","664","image-keyboard-response","286","2.0.0","6131210","p2pxoypm5n6","bigger","antelope","testing us, to see whether I could determine which of the two pictures being presented is bigger  ","no","stimuli/15-Inongruent.jpg","m","","","","","right","m","true"
"","null","html-keyboard-response","287","2.0.0","6132112","p2pxoypm5n6","bigger","antelope","testing us, to see whether I could determine which of the two pictures being presented is bigger  ","no","<p>Correct!</p>","null","","","","","","",""
"","null","html-keyboard-response","288","2.0.0","6133114","p2pxoypm5n6","bigger","antelope","testing us, to see whether I could determine which of the two pictures being presented is bigger  ","no","<div style=""font-size:60px;"">+</div>","null","","","","","","",""
"","1051","image-keyboard-response","289","2.0.0","6134167","p2pxoypm5n6","bigger","antelope","testing us, to see whether I could determine which of the two pictures being presented is bigger  ","no","stimuli/4-Congruent.jpg","z","","","","","left","z","true"
"","null","html-keyboard-response","290","2.0.0","6135069","p2pxoypm5n6","bigger","antelope","testing us, to see whether I could determine which of the two pictures being presented is bigger  ","no","<p>Correct!</p>","null","","","","","","",""
"","null","html-keyboard-response","291","2.0.0","6136071","p2pxoypm5n6","bigger","antelope","testing us, to see whether I could determine which of the two pictures being presented is bigger  ","no","<div style=""font-size:60px;"">+</div>","null","","","","","","",""
"","637","image-keyboard-response","292","2.0.0","6136709","p2pxoypm5n6","bigger","antelope","testing us, to see whether I could determine which of the two pictures being presented is bigger  ","no","stimuli/31-Congruent.jpg","z","","","","","left","z","true"
"","null","html-keyboard-response","293","2.0.0","6137612","p2pxoypm5n6","bigger","antelope","testing us, to see whether I could determine which of the two pictures being presented is bigger  ","no","<p>Correct!</p>","null","","","","","","",""
"","null","html-keyboard-response","294","2.0.0","6138614","p2pxoypm5n6","bigger","antelope","testing us, to see whether I could determine which of the two pictures being presented is bigger  ","no","<div style=""font-size:60px;"">+</div>","null","","","","","","",""
"","872","image-keyboard-response","295","2.0.0","6139487","p2pxoypm5n6","bigger","antelope","testing us, to see whether I could determine which of the two pictures being presented is bigger  ","no","stimuli/5-Inongruent.jpg","m","","","","","right","m","true"
"","null","html-keyboard-response","296","2.0.0","6140389","p2pxoypm5n6","bigger","antelope","testing us, to see whether I could determine which of the two pictures being presented is bigger  ","no","<p>Correct!</p>","null","","","","","","",""
"","null","html-keyboard-response","297","2.0.0","6141393","p2pxoypm5n6","bigger","antelope","testing us, to see whether I could determine which of the two pictures being presented is bigger  ","no","<div style=""font-size:60px;"">+</div>","null","","","","","","",""
"","634","image-keyboard-response","298","2.0.0","6142028","p2pxoypm5n6","bigger","antelope","testing us, to see whether I could determine which of the two pictures being presented is bigger  ","no","stimuli/23-Congruent.jpg","z","","","","","left","z","true"
"","null","html-keyboard-response","299","2.0.0","6142931","p2pxoypm5n6","bigger","antelope","testing us, to see whether I could determine which of the two pictures being presented is bigger  ","no","<p>Correct!</p>","null","","","","","","",""
"","null","html-keyboard-response","300","2.0.0","6143934","p2pxoypm5n6","bigger","antelope","testing us, to see whether I could determine which of the two pictures being presented is bigger  ","no","<div style=""font-size:60px;"">+</div>","null","","","","","","",""
"","611","image-keyboard-response","301","2.0.0","6144547","p2pxoypm5n6","bigger","antelope","testing us, to see whether I could determine which of the two pictures being presented is bigger  ","no","stimuli/23-Inongruent.jpg","m","","","","","right","m","true"
"","null","html-keyboard-response","302","2.0.0","6145450","p2pxoypm5n6","bigger","antelope","testing us, to see whether I could determine which of the two pictures being presented is bigger  ","no","<p>Correct!</p>","null","","","","","","",""
"","null","html-keyboard-response","303","2.0.0","6146453","p2pxoypm5n6","bigger","antelope","testing us, to see whether I could determine which of the two pictures being presented is bigger  ","no","<div style=""font-size:60px;"">+</div>","null","","","","","","",""
"","664","image-keyboard-response","304","2.0.0","6147119","p2pxoypm5n6","bigger","antelope","testing us, to see whether I could determine which of the two pictures being presented is bigger  ","no","stimuli/22-Congruent.jpg","z","","","","","left","z","true"
"","null","html-keyboard-response","305","2.0.0","6148021","p2pxoypm5n6","bigger","antelope","testing us, to see whether I could determine which of the two pictures being presented is bigger  ","no","<p>Correct!</p>","null","","","","","","",""
"","null","html-keyboard-response","306","2.0.0","6149024","p2pxoypm5n6","bigger","antelope","testing us, to see whether I could determine which of the two pictures being presented is bigger  ","no","<div style=""font-size:60px;"">+</div>","null","","","","","","",""
"","1015","image-keyboard-response","307","2.0.0","6150042","p2pxoypm5n6","bigger","antelope","testing us, to see whether I could determine which of the two pictures being presented is bigger  ","no","stimuli/1-Congruent.jpg","z","","","","","left","z","true"
"","null","html-keyboard-response","308","2.0.0","6150943","p2pxoypm5n6","bigger","antelope","testing us, to see whether I could determine which of the two pictures being presented is bigger  ","no","<p>Correct!</p>","null","","","","","","",""
"","null","html-keyboard-response","309","2.0.0","6151946","p2pxoypm5n6","bigger","antelope","testing us, to see whether I could determine which of the two pictures being presented is bigger  ","no","<div style=""font-size:60px;"">+</div>","null","","","","","","",""
"","1268","image-keyboard-response","310","2.0.0","6153216","p2pxoypm5n6","bigger","antelope","testing us, to see whether I could determine which of the two pictures being presented is bigger  ","no","stimuli/17-Inongruent.jpg","m","","","","","right","m","true"
"","null","html-keyboard-response","311","2.0.0","6154118","p2pxoypm5n6","bigger","antelope","testing us, to see whether I could determine which of the two pictures being presented is bigger  ","no","<p>Correct!</p>","null","","","","","","",""
"","null","html-keyboard-response","312","2.0.0","6155121","p2pxoypm5n6","bigger","antelope","testing us, to see whether I could determine which of the two pictures being presented is bigger  ","no","<div style=""font-size:60px;"">+</div>","null","","","","","","",""
"","1004","image-keyboard-response","313","2.0.0","6156127","p2pxoypm5n6","bigger","antelope","testing us, to see whether I could determine which of the two pictures being presented is bigger  ","no","stimuli/14-Inongruent.jpg","m","","","","","right","m","true"
"","null","html-keyboard-response","314","2.0.0","6157029","p2pxoypm5n6","bigger","antelope","testing us, to see whether I could determine which of the two pictures being presented is bigger  ","no","<p>Correct!</p>","null","","","","","","",""
"","null","html-keyboard-response","315","2.0.0","6158032","p2pxoypm5n6","bigger","antelope","testing us, to see whether I could determine which of the two pictures being presented is bigger  ","no","<div style=""font-size:60px;"">+</div>","null","","","","","","",""
"","755","image-keyboard-response","316","2.0.0","6158788","p2pxoypm5n6","bigger","antelope","testing us, to see whether I could determine which of the two pictures being presented is bigger  ","no","stimuli/33-Inongruent.jpg","m","","","","","right","m","true"
"","null","html-keyboard-response","317","2.0.0","6159691","p2pxoypm5n6","bigger","antelope","testing us, to see whether I could determine which of the two pictures being presented is bigger  ","no","<p>Correct!</p>","null","","","","","","",""
"","null","html-keyboard-response","318","2.0.0","6160694","p2pxoypm5n6","bigger","antelope","testing us, to see whether I could determine which of the two pictures being presented is bigger  ","no","<div style=""font-size:60px;"">+</div>","null","","","","","","",""
"","6018","image-keyboard-response","319","2.0.0","6166713","p2pxoypm5n6","bigger","antelope","testing us, to see whether I could determine which of the two pictures being presented is bigger  ","no","stimuli/26-Congruent.jpg","z","","","","","left","z","true"
"","null","html-keyboard-response","320","2.0.0","6167616","p2pxoypm5n6","bigger","antelope","testing us, to see whether I could determine which of the two pictures being presented is bigger  ","no","<p>Correct!</p>","null","","","","","","",""
"","null","html-keyboard-response","321","2.0.0","6168618","p2pxoypm5n6","bigger","antelope","testing us, to see whether I could determine which of the two pictures being presented is bigger  ","no","<div style=""font-size:60px;"">+</div>","null","","","","","","",""
"","765","image-keyboard-response","322","2.0.0","6169385","p2pxoypm5n6","bigger","antelope","testing us, to see whether I could determine which of the two pictures being presented is bigger  ","no","stimuli/23-Congruent.jpg","z","","","","","left","z","true"
"","null","html-keyboard-response","323","2.0.0","6170288","p2pxoypm5n6","bigger","antelope","testing us, to see whether I could determine which of the two pictures being presented is bigger  ","no","<p>Correct!</p>","null","","","","","","",""
"","null","html-keyboard-response","324","2.0.0","6171290","p2pxoypm5n6","bigger","antelope","testing us, to see whether I could determine which of the two pictures being presented is bigger  ","no","<div style=""font-size:60px;"">+</div>","null","","","","","","",""
"","570","image-keyboard-response","325","2.0.0","6171862","p2pxoypm5n6","bigger","antelope","testing us, to see whether I could determine which of the two pictures being presented is bigger  ","no","stimuli/10-Congruent.jpg","z","","","","","left","z","true"
"","null","html-keyboard-response","326","2.0.0","6172765","p2pxoypm5n6","bigger","antelope","testing us, to see whether I could determine which of the two pictures being presented is bigger  ","no","<p>Correct!</p>","null","","","","","","",""
"","null","html-keyboard-response","327","2.0.0","6173768","p2pxoypm5n6","bigger","antelope","testing us, to see whether I could determine which of the two pictures being presented is bigger  ","no","<div style=""font-size:60px;"">+</div>","null","","","","","","",""
"","58","image-keyboard-response","328","2.0.0","6173827","p2pxoypm5n6","bigger","antelope","testing us, to see whether I could determine which of the two pictures being presented is bigger  ","no","stimuli/20-Inongruent.jpg","z","","","","","right","m","false"
"","107","html-keyboard-response","329","2.0.0","6173935","p2pxoypm5n6","bigger","antelope","testing us, to see whether I could determine which of the two pictures being presented is bigger  ","no","<p>Incorrect.</p><p>Remember to select the <b>bigger</b> image.</p><p>Continuing in 5 seconds...</p>","m","","","","","","",""
"","null","html-keyboard-response","330","2.0.0","6174938","p2pxoypm5n6","bigger","antelope","testing us, to see whether I could determine which of the two pictures being presented is bigger  ","no","<div style=""font-size:60px;"">+</div>","null","","","","","","",""
"","412","image-keyboard-response","331","2.0.0","6175351","p2pxoypm5n6","bigger","antelope","testing us, to see whether I could determine which of the two pictures being presented is bigger  ","no","stimuli/25-Congruent.jpg","z","","","","","left","z","true"
"","342","html-keyboard-response","332","2.0.0","6175694","p2pxoypm5n6","bigger","antelope","testing us, to see whether I could determine which of the two pictures being presented is bigger  ","no","<p>Correct!</p>","m","","","","","","",""
"","null","html-keyboard-response","333","2.0.0","6176696","p2pxoypm5n6","bigger","antelope","testing us, to see whether I could determine which of the two pictures being presented is bigger  ","no","<div style=""font-size:60px;"">+</div>","null","","","","","","",""
"","28","image-keyboard-response","334","2.0.0","6176726","p2pxoypm5n6","bigger","antelope","testing us, to see whether I could determine which of the two pictures being presented is bigger  ","no","stimuli/29-Congruent.jpg","z","","","","","left","z","true"
"","169","html-keyboard-response","335","2.0.0","6176895","p2pxoypm5n6","bigger","antelope","testing us, to see whether I could determine which of the two pictures being presented is bigger  ","no","<p>Correct!</p>","m","","","","","","",""
"","null","html-keyboard-response","336","2.0.0","6177898","p2pxoypm5n6","bigger","antelope","testing us, to see whether I could determine which of the two pictures being presented is bigger  ","no","<div style=""font-size:60px;"">+</div>","null","","","","","","",""
"","139","image-keyboard-response","337","2.0.0","6178038","p2pxoypm5n6","bigger","antelope","testing us, to see whether I could determine which of the two pictures being presented is bigger  ","no","stimuli/23-Inongruent.jpg","z","","","","","right","m","false"
"","26","html-keyboard-response","338","2.0.0","6178065","p2pxoypm5n6","bigger","antelope","testing us, to see whether I could determine which of the two pictures being presented is bigger  ","no","<p>Incorrect.</p><p>Remember to select the <b>bigger</b> image.</p><p>Continuing in 5 seconds...</p>","m","","","","","","",""
"","null","html-keyboard-response","339","2.0.0","6179068","p2pxoypm5n6","bigger","antelope","testing us, to see whether I could determine which of the two pictures being presented is bigger  ","no","<div style=""font-size:60px;"">+</div>","null","","","","","","",""
"","562","image-keyboard-response","340","2.0.0","6179631","p2pxoypm5n6","bigger","antelope","testing us, to see whether I could determine which of the two pictures being presented is bigger  ","no","stimuli/3-Inongruent.jpg","m","","","","","right","m","true"
"","122","html-keyboard-response","341","2.0.0","6179755","p2pxoypm5n6","bigger","antelope","testing us, to see whether I could determine which of the two pictures being presented is bigger  ","no","<p>Correct!</p>","z","","","","","","",""
"","null","html-keyboard-response","342","2.0.0","6180757","p2pxoypm5n6","bigger","antelope","testing us, to see whether I could determine which of the two pictures being presented is bigger  ","no","<div style=""font-size:60px;"">+</div>","null","","","","","","",""
"","51","image-keyboard-response","343","2.0.0","6180809","p2pxoypm5n6","bigger","antelope","testing us, to see whether I could determine which of the two pictures being presented is bigger  ","no","stimuli/2-Inongruent.jpg","z","","","","","right","m","false"
"","22","html-keyboard-response","344","2.0.0","6180832","p2pxoypm5n6","bigger","antelope","testing us, to see whether I could determine which of the two pictures being presented is bigger  ","no","<p>Incorrect.</p><p>Remember to select the <b>bigger</b> image.</p><p>Continuing in 5 seconds...</p>","m","","","","","","",""
"","null","html-keyboard-response","345","2.0.0","6181833","p2pxoypm5n6","bigger","antelope","testing us, to see whether I could determine which of the two pictures being presented is bigger  ","no","<div style=""font-size:60px;"">+</div>","null","","","","","","",""
"","3","image-keyboard-response","346","2.0.0","6181837","p2pxoypm5n6","bigger","antelope","testing us, to see whether I could determine which of the two pictures being presented is bigger  ","no","stimuli/27-Inongruent.jpg","m","","","","","right","m","true"
"","429","html-keyboard-response","347","2.0.0","6182266","p2pxoypm5n6","bigger","antelope","testing us, to see whether I could determine which of the two pictures being presented is bigger  ","no","<p>Correct!</p>","m","","","","","","",""
"","null","html-keyboard-response","348","2.0.0","6183268","p2pxoypm5n6","bigger","antelope","testing us, to see whether I could determine which of the two pictures being presented is bigger  ","no","<div style=""font-size:60px;"">+</div>","null","","","","","","",""
"","407","image-keyboard-response","349","2.0.0","6183677","p2pxoypm5n6","bigger","antelope","testing us, to see whether I could determine which of the two pictures being presented is bigger  ","no","stimuli/10-Inongruent.jpg","m","","","","","right","m","true"
"","33","html-keyboard-response","350","2.0.0","6183711","p2pxoypm5n6","bigger","antelope","testing us, to see whether I could determine which of the two pictures being presented is bigger  ","no","<p>Correct!</p>","z","","","","","","",""
"","null","html-keyboard-response","351","2.0.0","6184713","p2pxoypm5n6","bigger","antelope","testing us, to see whether I could determine which of the two pictures being presented is bigger  ","no","<div style=""font-size:60px;"">+</div>","null","","","","","","",""
"","813","image-keyboard-response","352","2.0.0","6185528","p2pxoypm5n6","bigger","antelope","testing us, to see whether I could determine which of the two pictures being presented is bigger  ","no","stimuli/3-Congruent.jpg","z","","","","","left","z","true"
"","null","html-keyboard-response","353","2.0.0","6186431","p2pxoypm5n6","bigger","antelope","testing us, to see whether I could determine which of the two pictures being presented is bigger  ","no","<p>Correct!</p>","null","","","","","","",""
"","null","html-keyboard-response","354","2.0.0","6187434","p2pxoypm5n6","bigger","antelope","testing us, to see whether I could determine which of the two pictures being presented is bigger  ","no","<div style=""font-size:60px;"">+</div>","null","","","","","","",""
"","332","image-keyboard-response","355","2.0.0","6187768","p2pxoypm5n6","bigger","antelope","testing us, to see whether I could determine which of the two pictures being presented is bigger  ","no","stimuli/30-Congruent.jpg","m","","","","","left","z","false"
"","3","html-keyboard-response","356","2.0.0","6187771","p2pxoypm5n6","bigger","antelope","testing us, to see whether I could determine which of the two pictures being presented is bigger  ","no","<p>Incorrect.</p><p>Remember to select the <b>bigger</b> image.</p><p>Continuing in 5 seconds...</p>","z","","","","","","",""
"","null","html-keyboard-response","357","2.0.0","6188773","p2pxoypm5n6","bigger","antelope","testing us, to see whether I could determine which of the two pictures being presented is bigger  ","no","<div style=""font-size:60px;"">+</div>","null","","","","","","",""
"","344","image-keyboard-response","358","2.0.0","6189119","p2pxoypm5n6","bigger","antelope","testing us, to see whether I could determine which of the two pictures being presented is bigger  ","no","stimuli/34-Congruent.jpg","m","","","","","left","z","false"
"","4","html-keyboard-response","359","2.0.0","6189123","p2pxoypm5n6","bigger","antelope","testing us, to see whether I could determine which of the two pictures being presented is bigger  ","no","<p>Incorrect.</p><p>Remember to select the <b>bigger</b> image.</p><p>Continuing in 5 seconds...</p>","z","","","","","","",""
"","null","html-keyboard-response","360","2.0.0","6190125","p2pxoypm5n6","bigger","antelope","testing us, to see whether I could determine which of the two pictures being presented is bigger  ","no","<div style=""font-size:60px;"">+</div>","null","","","","","","",""
"","269","image-keyboard-response","361","2.0.0","6190396","p2pxoypm5n6","bigger","antelope","testing us, to see whether I could determine which of the two pictures being presented is bigger  ","no","stimuli/7-Inongruent.jpg","m","","","","","right","m","true"
"","2","html-keyboard-response","362","2.0.0","6190398","p2pxoypm5n6","bigger","antelope","testing us, to see whether I could determine which of the two pictures being presented is bigger  ","no","<p>Correct!</p>","z","","","","","","",""
"","null","html-keyboard-response","363","2.0.0","6191401","p2pxoypm5n6","bigger","antelope","testing us, to see whether I could determine which of the two pictures being presented is bigger  ","no","<div style=""font-size:60px;"">+</div>","null","","","","","","",""
"","734","image-keyboard-response","364","2.0.0","6192136","p2pxoypm5n6","bigger","antelope","testing us, to see whether I could determine which of the two pictures being presented is bigger  ","no","stimuli/7-Congruent.jpg","z","","","","","left","z","true"
"","null","html-keyboard-response","365","2.0.0","6193039","p2pxoypm5n6","bigger","antelope","testing us, to see whether I could determine which of the two pictures being presented is bigger  ","no","<p>Correct!</p>","null","","","","","","",""
"","null","html-keyboard-response","366","2.0.0","6194041","p2pxoypm5n6","bigger","antelope","testing us, to see whether I could determine which of the two pictures being presented is bigger  ","no","<div style=""font-size:60px;"">+</div>","null","","","","","","",""
"","6576","image-keyboard-response","367","2.0.0","6200618","p2pxoypm5n6","bigger","antelope","testing us, to see whether I could determine which of the two pictures being presented is bigger  ","no","stimuli/8-Congruent.jpg","z","","","","","left","z","true"
"","null","html-keyboard-response","368","2.0.0","6201521","p2pxoypm5n6","bigger","antelope","testing us, to see whether I could determine which of the two pictures being presented is bigger  ","no","<p>Correct!</p>","null","","","","","","",""
"","null","html-keyboard-response","369","2.0.0","6202524","p2pxoypm5n6","bigger","antelope","testing us, to see whether I could determine which of the two pictures being presented is bigger  ","no","<div style=""font-size:60px;"">+</div>","null","","","","","","",""
"","1208","image-keyboard-response","370","2.0.0","6203734","p2pxoypm5n6","bigger","antelope","testing us, to see whether I could determine which of the two pictures being presented is bigger  ","no","stimuli/19-Inongruent.jpg","m","","","","","right","m","true"
"","null","html-keyboard-response","371","2.0.0","6204636","p2pxoypm5n6","bigger","antelope","testing us, to see whether I could determine which of the two pictures being presented is bigger  ","no","<p>Correct!</p>","null","","","","","","",""
"","null","html-keyboard-response","372","2.0.0","6205638","p2pxoypm5n6","bigger","antelope","testing us, to see whether I could determine which of the two pictures being presented is bigger  ","no","<div style=""font-size:60px;"">+</div>","null","","","","","","",""
"","7254","image-keyboard-response","373","2.0.0","6212894","p2pxoypm5n6","bigger","antelope","testing us, to see whether I could determine which of the two pictures being presented is bigger  ","no","stimuli/35-Congruent.jpg","z","","","","","left","z","true"
"","null","html-keyboard-response","374","2.0.0","6213796","p2pxoypm5n6","bigger","antelope","testing us, to see whether I could determine which of the two pictures being presented is bigger  ","no","<p>Correct!</p>","null","","","","","","",""
"","null","html-keyboard-response","375","2.0.0","6214799","p2pxoypm5n6","bigger","antelope","testing us, to see whether I could determine which of the two pictures being presented is bigger  ","no","<div style=""font-size:60px;"">+</div>","null","","","","","","",""
"","1348","image-keyboard-response","376","2.0.0","6216149","p2pxoypm5n6","bigger","antelope","testing us, to see whether I could determine which of the two pictures being presented is bigger  ","no","stimuli/2-Congruent.jpg","z","","","","","left","z","true"
"","null","html-keyboard-response","377","2.0.0","6217051","p2pxoypm5n6","bigger","antelope","testing us, to see whether I could determine which of the two pictures being presented is bigger  ","no","<p>Correct!</p>","null","","","","","","",""
"","null","html-keyboard-response","378","2.0.0","6218053","p2pxoypm5n6","bigger","antelope","testing us, to see whether I could determine which of the two pictures being presented is bigger  ","no","<div style=""font-size:60px;"">+</div>","null","","","","","","",""
"","957","image-keyboard-response","379","2.0.0","6219012","p2pxoypm5n6","bigger","antelope","testing us, to see whether I could determine which of the two pictures being presented is bigger  ","no","stimuli/31-Inongruent.jpg","m","","","","","right","m","true"
"","null","html-keyboard-response","380","2.0.0","6219914","p2pxoypm5n6","bigger","antelope","testing us, to see whether I could determine which of the two pictures being presented is bigger  ","no","<p>Correct!</p>","null","","","","","","",""
"","null","html-keyboard-response","381","2.0.0","6220917","p2pxoypm5n6","bigger","antelope","testing us, to see whether I could determine which of the two pictures being presented is bigger  ","no","<div style=""font-size:60px;"">+</div>","null","","","","","","",""
"","660","image-keyboard-response","382","2.0.0","6221579","p2pxoypm5n6","bigger","antelope","testing us, to see whether I could determine which of the two pictures being presented is bigger  ","no","stimuli/16-Inongruent.jpg","m","","","","","right","m","true"
