"success","rt","trial_type","trial_index","plugin_version","time_elapsed","random_id","condition","participant","participant_thoughts","participant_difficulties","stimulus","response","timeout","failed_images","failed_audio","failed_video","correct_response","correct_response_key","correct"
"true","136238","fullscreen","0","null","137243","p32p2a4fdbw","bigger","herson","accuracy test","no","","","","","","","","",""
"","1618","html-keyboard-response","1","2.0.0","138861","p32p2a4fdbw","bigger","herson","accuracy test","no","Welcome to the Size Stroop experiment. Press any key to begin."," ","","","","","","",""
"","null","html-keyboard-response","2","2.0.0","139866","p32p2a4fdbw","bigger","herson","accuracy test","no","This trial will be in fullscreen mode.","null","","","","","","",""
"","2012","survey-text","3","2.0.0","141880","p32p2a4fdbw","bigger","herson","accuracy test","no","","{""participant_id"":""herson""}","","","","","","",""
"","6223","html-keyboard-response","4","2.0.0","148103","p32p2a4fdbw","bigger","herson","accuracy test","no","<p>In this experiment, two images will appear on the screen. Identify the <strong>larger</strong> images.</p>
              <p>If the image on the left is larger, press ""z"". If the image on the right is larger, press ""m"".</p>
              <p>Press any key to begin.</p>"," ","","","","","","",""
"true","","preload","5","2.0.0","148901","p32p2a4fdbw","bigger","herson","accuracy test","no","","","false","[]","[]","[]","","",""
"","null","html-keyboard-response","6","2.0.0","149915","p32p2a4fdbw","bigger","herson","accuracy test","no","<div style=""font-size:60px;"">+</div>","null","","","","","","",""
"","746","image-keyboard-response","7","2.0.0","150663","p32p2a4fdbw","bigger","herson","accuracy test","no","stimuli/16-Inongruent.jpg","m","","","","","right","m","true"
"","null","html-keyboard-response","8","2.0.0","151567","p32p2a4fdbw","bigger","herson","accuracy test","no","<p>Correct!</p>","null","","","","","","",""
"","null","html-keyboard-response","9","2.0.0","152582","p32p2a4fdbw","bigger","herson","accuracy test","no","<div style=""font-size:60px;"">+</div>","null","","","","","","",""
"","523","image-keyboard-response","10","2.0.0","153106","p32p2a4fdbw","bigger","herson","accuracy test","no","stimuli/15-Congruent.jpg","z","","","","","left","z","true"
"","null","html-keyboard-response","11","2.0.0","154016","p32p2a4fdbw","bigger","herson","accuracy test","no","<p>Correct!</p>","null","","","","","","",""
"","null","html-keyboard-response","12","2.0.0","155020","p32p2a4fdbw","bigger","herson","accuracy test","no","<div style=""font-size:60px;"">+</div>","null","","","","","","",""
"","522","image-keyboard-response","13","2.0.0","155542","p32p2a4fdbw","bigger","herson","accuracy test","no","stimuli/18-Inongruent.jpg","m","","","","","right","m","true"
"","null","html-keyboard-response","14","2.0.0","156451","p32p2a4fdbw","bigger","herson","accuracy test","no","<p>Correct!</p>","null","","","","","","",""
"","null","html-keyboard-response","15","2.0.0","157465","p32p2a4fdbw","bigger","herson","accuracy test","no","<div style=""font-size:60px;"">+</div>","null","","","","","","",""
"","459","image-keyboard-response","16","2.0.0","157925","p32p2a4fdbw","bigger","herson","accuracy test","no","stimuli/25-Congruent.jpg","z","","","","","left","z","true"
"","null","html-keyboard-response","17","2.0.0","158838","p32p2a4fdbw","bigger","herson","accuracy test","no","<p>Correct!</p>","null","","","","","","",""
"","null","html-keyboard-response","18","2.0.0","159851","p32p2a4fdbw","bigger","herson","accuracy test","no","<div style=""font-size:60px;"">+</div>","null","","","","","","",""
"","498","image-keyboard-response","19","2.0.0","160350","p32p2a4fdbw","bigger","herson","accuracy test","no","stimuli/29-Congruent.jpg","z","","","","","left","z","true"
"","null","html-keyboard-response","20","2.0.0","161257","p32p2a4fdbw","bigger","herson","accuracy test","no","<p>Correct!</p>","null","","","","","","",""
"","null","html-keyboard-response","21","2.0.0","162273","p32p2a4fdbw","bigger","herson","accuracy test","no","<div style=""font-size:60px;"">+</div>","null","","","","","","",""
"","445","image-keyboard-response","22","2.0.0","162718","p32p2a4fdbw","bigger","herson","accuracy test","no","stimuli/27-Congruent.jpg","z","","","","","left","z","true"
"","null","html-keyboard-response","23","2.0.0","163626","p32p2a4fdbw","bigger","herson","accuracy test","no","<p>Correct!</p>","null","","","","","","",""
"","null","html-keyboard-response","24","2.0.0","164640","p32p2a4fdbw","bigger","herson","accuracy test","no","<div style=""font-size:60px;"">+</div>","null","","","","","","",""
"","481","image-keyboard-response","25","2.0.0","165123","p32p2a4fdbw","bigger","herson","accuracy test","no","stimuli/26-Congruent.jpg","z","","","","","left","z","true"
"","null","html-keyboard-response","26","2.0.0","166028","p32p2a4fdbw","bigger","herson","accuracy test","no","<p>Correct!</p>","null","","","","","","",""
"","null","html-keyboard-response","27","2.0.0","167042","p32p2a4fdbw","bigger","herson","accuracy test","no","<div style=""font-size:60px;"">+</div>","null","","","","","","",""
"","476","image-keyboard-response","28","2.0.0","167518","p32p2a4fdbw","bigger","herson","accuracy test","no","stimuli/12-Congruent.jpg","z","","","","","left","z","true"
"","null","html-keyboard-response","29","2.0.0","168428","p32p2a4fdbw","bigger","herson","accuracy test","no","<p>Correct!</p>","null","","","","","","",""
"","null","html-keyboard-response","30","2.0.0","169431","p32p2a4fdbw","bigger","herson","accuracy test","no","<div style=""font-size:60px;"">+</div>","null","","","","","","",""
"","490","image-keyboard-response","31","2.0.0","169922","p32p2a4fdbw","bigger","herson","accuracy test","no","stimuli/24-Inongruent.jpg","m","","","","","right","m","true"
"","null","html-keyboard-response","32","2.0.0","170837","p32p2a4fdbw","bigger","herson","accuracy test","no","<p>Correct!</p>","null","","","","","","",""
"","null","html-keyboard-response","33","2.0.0","171853","p32p2a4fdbw","bigger","herson","accuracy test","no","<div style=""font-size:60px;"">+</div>","null","","","","","","",""
"","377","image-keyboard-response","34","2.0.0","172231","p32p2a4fdbw","bigger","herson","accuracy test","no","stimuli/10-Congruent.jpg","z","","","","","left","z","true"
"","null","html-keyboard-response","35","2.0.0","173144","p32p2a4fdbw","bigger","herson","accuracy test","no","<p>Correct!</p>","null","","","","","","",""
"","null","html-keyboard-response","36","2.0.0","174159","p32p2a4fdbw","bigger","herson","accuracy test","no","<div style=""font-size:60px;"">+</div>","null","","","","","","",""
"","380","image-keyboard-response","37","2.0.0","174540","p32p2a4fdbw","bigger","herson","accuracy test","no","stimuli/32-Congruent.jpg","z","","","","","left","z","true"
"","null","html-keyboard-response","38","2.0.0","175456","p32p2a4fdbw","bigger","herson","accuracy test","no","<p>Correct!</p>","null","","","","","","",""
"","null","html-keyboard-response","39","2.0.0","176471","p32p2a4fdbw","bigger","herson","accuracy test","no","<div style=""font-size:60px;"">+</div>","null","","","","","","",""
"","262","image-keyboard-response","40","2.0.0","176734","p32p2a4fdbw","bigger","herson","accuracy test","no","stimuli/8-Inongruent.jpg","z","","","","","right","m","false"
"","null","html-keyboard-response","41","2.0.0","181737","p32p2a4fdbw","bigger","herson","accuracy test","no","<p>Incorrect.</p><p>Remember to select the <b>bigger</b> image.</p><p>Continuing in 5 seconds...</p>","null","","","","","","",""
"","null","html-keyboard-response","42","2.0.0","182749","p32p2a4fdbw","bigger","herson","accuracy test","no","<div style=""font-size:60px;"">+</div>","null","","","","","","",""
"","418","image-keyboard-response","43","2.0.0","183167","p32p2a4fdbw","bigger","herson","accuracy test","no","stimuli/8-Inongruent.jpg","m","","","","","right","m","true"
"","null","html-keyboard-response","44","2.0.0","184074","p32p2a4fdbw","bigger","herson","accuracy test","no","<p>Correct!</p>","null","","","","","","",""
"","null","html-keyboard-response","45","2.0.0","185089","p32p2a4fdbw","bigger","herson","accuracy test","no","<div style=""font-size:60px;"">+</div>","null","","","","","","",""
"","394","image-keyboard-response","46","2.0.0","185483","p32p2a4fdbw","bigger","herson","accuracy test","no","stimuli/21-Inongruent.jpg","m","","","","","right","m","true"
"","null","html-keyboard-response","47","2.0.0","186396","p32p2a4fdbw","bigger","herson","accuracy test","no","<p>Correct!</p>","null","","","","","","",""
"","null","html-keyboard-response","48","2.0.0","187406","p32p2a4fdbw","bigger","herson","accuracy test","no","<div style=""font-size:60px;"">+</div>","null","","","","","","",""
"","371","image-keyboard-response","49","2.0.0","187778","p32p2a4fdbw","bigger","herson","accuracy test","no","stimuli/33-Inongruent.jpg","m","","","","","right","m","true"
"","null","html-keyboard-response","50","2.0.0","188685","p32p2a4fdbw","bigger","herson","accuracy test","no","<p>Correct!</p>","null","","","","","","",""
"","null","html-keyboard-response","51","2.0.0","189688","p32p2a4fdbw","bigger","herson","accuracy test","no","<div style=""font-size:60px;"">+</div>","null","","","","","","",""
"","418","image-keyboard-response","52","2.0.0","190107","p32p2a4fdbw","bigger","herson","accuracy test","no","stimuli/6-Inongruent.jpg","m","","","","","right","m","true"
"","null","html-keyboard-response","53","2.0.0","191011","p32p2a4fdbw","bigger","herson","accuracy test","no","<p>Correct!</p>","null","","","","","","",""
"","null","html-keyboard-response","54","2.0.0","192025","p32p2a4fdbw","bigger","herson","accuracy test","no","<div style=""font-size:60px;"">+</div>","null","","","","","","",""
"","411","image-keyboard-response","55","2.0.0","192436","p32p2a4fdbw","bigger","herson","accuracy test","no","stimuli/2-Inongruent.jpg","m","","","","","right","m","true"
"","null","html-keyboard-response","56","2.0.0","193349","p32p2a4fdbw","bigger","herson","accuracy test","no","<p>Correct!</p>","null","","","","","","",""
"","null","html-keyboard-response","57","2.0.0","194351","p32p2a4fdbw","bigger","herson","accuracy test","no","<div style=""font-size:60px;"">+</div>","null","","","","","","",""
"","441","image-keyboard-response","58","2.0.0","194792","p32p2a4fdbw","bigger","herson","accuracy test","no","stimuli/22-Inongruent.jpg","m","","","","","right","m","true"
"","null","html-keyboard-response","59","2.0.0","195708","p32p2a4fdbw","bigger","herson","accuracy test","no","<p>Correct!</p>","null","","","","","","",""
"","null","html-keyboard-response","60","2.0.0","196724","p32p2a4fdbw","bigger","herson","accuracy test","no","<div style=""font-size:60px;"">+</div>","null","","","","","","",""
"","397","image-keyboard-response","61","2.0.0","197121","p32p2a4fdbw","bigger","herson","accuracy test","no","stimuli/26-Inongruent.jpg","m","","","","","right","m","true"
"","null","html-keyboard-response","62","2.0.0","198029","p32p2a4fdbw","bigger","herson","accuracy test","no","<p>Correct!</p>","null","","","","","","",""
"","null","html-keyboard-response","63","2.0.0","199030","p32p2a4fdbw","bigger","herson","accuracy test","no","<div style=""font-size:60px;"">+</div>","null","","","","","","",""
"","446","image-keyboard-response","64","2.0.0","199477","p32p2a4fdbw","bigger","herson","accuracy test","no","stimuli/30-Inongruent.jpg","m","","","","","right","m","true"
"","null","html-keyboard-response","65","2.0.0","200386","p32p2a4fdbw","bigger","herson","accuracy test","no","<p>Correct!</p>","null","","","","","","",""
"","null","html-keyboard-response","66","2.0.0","201395","p32p2a4fdbw","bigger","herson","accuracy test","no","<div style=""font-size:60px;"">+</div>","null","","","","","","",""
"","458","image-keyboard-response","67","2.0.0","201854","p32p2a4fdbw","bigger","herson","accuracy test","no","stimuli/26-Congruent.jpg","z","","","","","left","z","true"
"","null","html-keyboard-response","68","2.0.0","202768","p32p2a4fdbw","bigger","herson","accuracy test","no","<p>Correct!</p>","null","","","","","","",""
"","null","html-keyboard-response","69","2.0.0","203784","p32p2a4fdbw","bigger","herson","accuracy test","no","<div style=""font-size:60px;"">+</div>","null","","","","","","",""
"","500","image-keyboard-response","70","2.0.0","204284","p32p2a4fdbw","bigger","herson","accuracy test","no","stimuli/21-Inongruent.jpg","m","","","","","right","m","true"
"","null","html-keyboard-response","71","2.0.0","205189","p32p2a4fdbw","bigger","herson","accuracy test","no","<p>Correct!</p>","null","","","","","","",""
"","null","html-keyboard-response","72","2.0.0","206192","p32p2a4fdbw","bigger","herson","accuracy test","no","<div style=""font-size:60px;"">+</div>","null","","","","","","",""
"","698","image-keyboard-response","73","2.0.0","206891","p32p2a4fdbw","bigger","herson","accuracy test","no","stimuli/27-Inongruent.jpg","m","","","","","right","m","true"
"","null","html-keyboard-response","74","2.0.0","207797","p32p2a4fdbw","bigger","herson","accuracy test","no","<p>Correct!</p>","null","","","","","","",""
"","null","html-keyboard-response","75","2.0.0","208812","p32p2a4fdbw","bigger","herson","accuracy test","no","<div style=""font-size:60px;"">+</div>","null","","","","","","",""
"","481","image-keyboard-response","76","2.0.0","209294","p32p2a4fdbw","bigger","herson","accuracy test","no","stimuli/24-Congruent.jpg","z","","","","","left","z","true"
"","null","html-keyboard-response","77","2.0.0","210201","p32p2a4fdbw","bigger","herson","accuracy test","no","<p>Correct!</p>","null","","","","","","",""
"","null","html-keyboard-response","78","2.0.0","211215","p32p2a4fdbw","bigger","herson","accuracy test","no","<div style=""font-size:60px;"">+</div>","null","","","","","","",""
"","482","image-keyboard-response","79","2.0.0","211697","p32p2a4fdbw","bigger","herson","accuracy test","no","stimuli/13-Inongruent.jpg","m","","","","","right","m","true"
"","null","html-keyboard-response","80","2.0.0","212611","p32p2a4fdbw","bigger","herson","accuracy test","no","<p>Correct!</p>","null","","","","","","",""
"","null","html-keyboard-response","81","2.0.0","213628","p32p2a4fdbw","bigger","herson","accuracy test","no","<div style=""font-size:60px;"">+</div>","null","","","","","","",""
"","371","image-keyboard-response","82","2.0.0","213999","p32p2a4fdbw","bigger","herson","accuracy test","no","stimuli/31-Congruent.jpg","z","","","","","left","z","true"
"","null","html-keyboard-response","83","2.0.0","214906","p32p2a4fdbw","bigger","herson","accuracy test","no","<p>Correct!</p>","null","","","","","","",""
"","null","html-keyboard-response","84","2.0.0","215920","p32p2a4fdbw","bigger","herson","accuracy test","no","<div style=""font-size:60px;"">+</div>","null","","","","","","",""
"","501","image-keyboard-response","85","2.0.0","216423","p32p2a4fdbw","bigger","herson","accuracy test","no","stimuli/28-Inongruent.jpg","m","","","","","right","m","true"
"","null","html-keyboard-response","86","2.0.0","217337","p32p2a4fdbw","bigger","herson","accuracy test","no","<p>Correct!</p>","null","","","","","","",""
"","null","html-keyboard-response","87","2.0.0","218350","p32p2a4fdbw","bigger","herson","accuracy test","no","<div style=""font-size:60px;"">+</div>","null","","","","","","",""
"","429","image-keyboard-response","88","2.0.0","218780","p32p2a4fdbw","bigger","herson","accuracy test","no","stimuli/17-Inongruent.jpg","m","","","","","right","m","true"
"","null","html-keyboard-response","89","2.0.0","219690","p32p2a4fdbw","bigger","herson","accuracy test","no","<p>Correct!</p>","null","","","","","","",""
"","null","html-keyboard-response","90","2.0.0","220706","p32p2a4fdbw","bigger","herson","accuracy test","no","<div style=""font-size:60px;"">+</div>","null","","","","","","",""
"","962","image-keyboard-response","91","2.0.0","221669","p32p2a4fdbw","bigger","herson","accuracy test","no","stimuli/20-Congruent.jpg","z","","","","","left","z","true"
"","null","html-keyboard-response","92","2.0.0","222574","p32p2a4fdbw","bigger","herson","accuracy test","no","<p>Correct!</p>","null","","","","","","",""
"","null","html-keyboard-response","93","2.0.0","223590","p32p2a4fdbw","bigger","herson","accuracy test","no","<div style=""font-size:60px;"">+</div>","null","","","","","","",""
"","360","image-keyboard-response","94","2.0.0","223951","p32p2a4fdbw","bigger","herson","accuracy test","no","stimuli/30-Congruent.jpg","z","","","","","left","z","true"
"","null","html-keyboard-response","95","2.0.0","224859","p32p2a4fdbw","bigger","herson","accuracy test","no","<p>Correct!</p>","null","","","","","","",""
"","null","html-keyboard-response","96","2.0.0","225861","p32p2a4fdbw","bigger","herson","accuracy test","no","<div style=""font-size:60px;"">+</div>","null","","","","","","",""
"","459","image-keyboard-response","97","2.0.0","226321","p32p2a4fdbw","bigger","herson","accuracy test","no","stimuli/23-Congruent.jpg","m","","","","","left","z","false"
"","null","html-keyboard-response","98","2.0.0","231332","p32p2a4fdbw","bigger","herson","accuracy test","no","<p>Incorrect.</p><p>Remember to select the <b>bigger</b> image.</p><p>Continuing in 5 seconds...</p>","null","","","","","","",""
"","null","html-keyboard-response","99","2.0.0","232346","p32p2a4fdbw","bigger","herson","accuracy test","no","<div style=""font-size:60px;"">+</div>","null","","","","","","",""
"","544","image-keyboard-response","100","2.0.0","232890","p32p2a4fdbw","bigger","herson","accuracy test","no","stimuli/18-Inongruent.jpg","m","","","","","right","m","true"
"","null","html-keyboard-response","101","2.0.0","233795","p32p2a4fdbw","bigger","herson","accuracy test","no","<p>Correct!</p>","null","","","","","","",""
"","null","html-keyboard-response","102","2.0.0","234806","p32p2a4fdbw","bigger","herson","accuracy test","no","<div style=""font-size:60px;"">+</div>","null","","","","","","",""
"","744","image-keyboard-response","103","2.0.0","235550","p32p2a4fdbw","bigger","herson","accuracy test","no","stimuli/29-Inongruent.jpg","m","","","","","right","m","true"
"","null","html-keyboard-response","104","2.0.0","236461","p32p2a4fdbw","bigger","herson","accuracy test","no","<p>Correct!</p>","null","","","","","","",""
"","null","html-keyboard-response","105","2.0.0","237469","p32p2a4fdbw","bigger","herson","accuracy test","no","<div style=""font-size:60px;"">+</div>","null","","","","","","",""
"","666","image-keyboard-response","106","2.0.0","238136","p32p2a4fdbw","bigger","herson","accuracy test","no","stimuli/11-Inongruent.jpg","m","","","","","right","m","true"
"","null","html-keyboard-response","107","2.0.0","239045","p32p2a4fdbw","bigger","herson","accuracy test","no","<p>Correct!</p>","null","","","","","","",""
"","null","html-keyboard-response","108","2.0.0","240047","p32p2a4fdbw","bigger","herson","accuracy test","no","<div style=""font-size:60px;"">+</div>","null","","","","","","",""
"","459","image-keyboard-response","109","2.0.0","240506","p32p2a4fdbw","bigger","herson","accuracy test","no","stimuli/30-Inongruent.jpg","m","","","","","right","m","true"
"","null","html-keyboard-response","110","2.0.0","241419","p32p2a4fdbw","bigger","herson","accuracy test","no","<p>Correct!</p>","null","","","","","","",""
"","null","html-keyboard-response","111","2.0.0","242431","p32p2a4fdbw","bigger","herson","accuracy test","no","<div style=""font-size:60px;"">+</div>","null","","","","","","",""
"","499","image-keyboard-response","112","2.0.0","242930","p32p2a4fdbw","bigger","herson","accuracy test","no","stimuli/3-Inongruent.jpg","m","","","","","right","m","true"
"","null","html-keyboard-response","113","2.0.0","243835","p32p2a4fdbw","bigger","herson","accuracy test","no","<p>Correct!</p>","null","","","","","","",""
"","null","html-keyboard-response","114","2.0.0","244851","p32p2a4fdbw","bigger","herson","accuracy test","no","<div style=""font-size:60px;"">+</div>","null","","","","","","",""
"","1913","image-keyboard-response","115","2.0.0","246764","p32p2a4fdbw","bigger","herson","accuracy test","no","stimuli/14-Inongruent.jpg","m","","","","","right","m","true"
"","null","html-keyboard-response","116","2.0.0","247674","p32p2a4fdbw","bigger","herson","accuracy test","no","<p>Correct!</p>","null","","","","","","",""
"","null","html-keyboard-response","117","2.0.0","248688","p32p2a4fdbw","bigger","herson","accuracy test","no","<div style=""font-size:60px;"">+</div>","null","","","","","","",""
"","439","image-keyboard-response","118","2.0.0","249127","p32p2a4fdbw","bigger","herson","accuracy test","no","stimuli/11-Inongruent.jpg","m","","","","","right","m","true"
"","null","html-keyboard-response","119","2.0.0","250041","p32p2a4fdbw","bigger","herson","accuracy test","no","<p>Correct!</p>","null","","","","","","",""
"","null","html-keyboard-response","120","2.0.0","251056","p32p2a4fdbw","bigger","herson","accuracy test","no","<div style=""font-size:60px;"">+</div>","null","","","","","","",""
"","413","image-keyboard-response","121","2.0.0","251470","p32p2a4fdbw","bigger","herson","accuracy test","no","stimuli/6-Congruent.jpg","z","","","","","left","z","true"
"","null","html-keyboard-response","122","2.0.0","252384","p32p2a4fdbw","bigger","herson","accuracy test","no","<p>Correct!</p>","null","","","","","","",""
"","null","html-keyboard-response","123","2.0.0","253398","p32p2a4fdbw","bigger","herson","accuracy test","no","<div style=""font-size:60px;"">+</div>","null","","","","","","",""
"","394","image-keyboard-response","124","2.0.0","253792","p32p2a4fdbw","bigger","herson","accuracy test","no","stimuli/28-Inongruent.jpg","m","","","","","right","m","true"
"","null","html-keyboard-response","125","2.0.0","254708","p32p2a4fdbw","bigger","herson","accuracy test","no","<p>Correct!</p>","null","","","","","","",""
"","null","html-keyboard-response","126","2.0.0","255718","p32p2a4fdbw","bigger","herson","accuracy test","no","<div style=""font-size:60px;"">+</div>","null","","","","","","",""
"","369","image-keyboard-response","127","2.0.0","256088","p32p2a4fdbw","bigger","herson","accuracy test","no","stimuli/25-Inongruent.jpg","m","","","","","right","m","true"
"","null","html-keyboard-response","128","2.0.0","257002","p32p2a4fdbw","bigger","herson","accuracy test","no","<p>Correct!</p>","null","","","","","","",""
"","null","html-keyboard-response","129","2.0.0","258015","p32p2a4fdbw","bigger","herson","accuracy test","no","<div style=""font-size:60px;"">+</div>","null","","","","","","",""
"","456","image-keyboard-response","130","2.0.0","258471","p32p2a4fdbw","bigger","herson","accuracy test","no","stimuli/16-Congruent.jpg","z","","","","","left","z","true"
"","null","html-keyboard-response","131","2.0.0","259385","p32p2a4fdbw","bigger","herson","accuracy test","no","<p>Correct!</p>","null","","","","","","",""
"","null","html-keyboard-response","132","2.0.0","260400","p32p2a4fdbw","bigger","herson","accuracy test","no","<div style=""font-size:60px;"">+</div>","null","","","","","","",""
"","407","image-keyboard-response","133","2.0.0","260808","p32p2a4fdbw","bigger","herson","accuracy test","no","stimuli/22-Inongruent.jpg","m","","","","","right","m","true"
"","null","html-keyboard-response","134","2.0.0","261710","p32p2a4fdbw","bigger","herson","accuracy test","no","<p>Correct!</p>","null","","","","","","",""
"","null","html-keyboard-response","135","2.0.0","262719","p32p2a4fdbw","bigger","herson","accuracy test","no","<div style=""font-size:60px;"">+</div>","null","","","","","","",""
"","526","image-keyboard-response","136","2.0.0","263246","p32p2a4fdbw","bigger","herson","accuracy test","no","stimuli/9-Congruent.jpg","z","","","","","left","z","true"
"","null","html-keyboard-response","137","2.0.0","264155","p32p2a4fdbw","bigger","herson","accuracy test","no","<p>Correct!</p>","null","","","","","","",""
"","null","html-keyboard-response","138","2.0.0","265168","p32p2a4fdbw","bigger","herson","accuracy test","no","<div style=""font-size:60px;"">+</div>","null","","","","","","",""
"","522","image-keyboard-response","139","2.0.0","265690","p32p2a4fdbw","bigger","herson","accuracy test","no","stimuli/15-Congruent.jpg","z","","","","","left","z","true"
"","null","html-keyboard-response","140","2.0.0","266602","p32p2a4fdbw","bigger","herson","accuracy test","no","<p>Correct!</p>","null","","","","","","",""
"","null","html-keyboard-response","141","2.0.0","267618","p32p2a4fdbw","bigger","herson","accuracy test","no","<div style=""font-size:60px;"">+</div>","null","","","","","","",""
"","386","image-keyboard-response","142","2.0.0","268005","p32p2a4fdbw","bigger","herson","accuracy test","no","stimuli/19-Inongruent.jpg","m","","","","","right","m","true"
"","null","html-keyboard-response","143","2.0.0","268911","p32p2a4fdbw","bigger","herson","accuracy test","no","<p>Correct!</p>","null","","","","","","",""
"","null","html-keyboard-response","144","2.0.0","269926","p32p2a4fdbw","bigger","herson","accuracy test","no","<div style=""font-size:60px;"">+</div>","null","","","","","","",""
"","576","image-keyboard-response","145","2.0.0","270503","p32p2a4fdbw","bigger","herson","accuracy test","no","stimuli/29-Inongruent.jpg","m","","","","","right","m","true"
"","null","html-keyboard-response","146","2.0.0","271407","p32p2a4fdbw","bigger","herson","accuracy test","no","<p>Correct!</p>","null","","","","","","",""
"","null","html-keyboard-response","147","2.0.0","272420","p32p2a4fdbw","bigger","herson","accuracy test","no","<div style=""font-size:60px;"">+</div>","null","","","","","","",""
"","525","image-keyboard-response","148","2.0.0","272946","p32p2a4fdbw","bigger","herson","accuracy test","no","stimuli/2-Congruent.jpg","z","","","","","left","z","true"
"","null","html-keyboard-response","149","2.0.0","273849","p32p2a4fdbw","bigger","herson","accuracy test","no","<p>Correct!</p>","null","","","","","","",""
"","null","html-keyboard-response","150","2.0.0","274852","p32p2a4fdbw","bigger","herson","accuracy test","no","<div style=""font-size:60px;"">+</div>","null","","","","","","",""
"","524","image-keyboard-response","151","2.0.0","275377","p32p2a4fdbw","bigger","herson","accuracy test","no","stimuli/27-Congruent.jpg","z","","","","","left","z","true"
"","null","html-keyboard-response","152","2.0.0","276280","p32p2a4fdbw","bigger","herson","accuracy test","no","<p>Correct!</p>","null","","","","","","",""
"","null","html-keyboard-response","153","2.0.0","277295","p32p2a4fdbw","bigger","herson","accuracy test","no","<div style=""font-size:60px;"">+</div>","null","","","","","","",""
"","938","image-keyboard-response","154","2.0.0","278233","p32p2a4fdbw","bigger","herson","accuracy test","no","stimuli/28-Congruent.jpg","z","","","","","left","z","true"
"","null","html-keyboard-response","155","2.0.0","279139","p32p2a4fdbw","bigger","herson","accuracy test","no","<p>Correct!</p>","null","","","","","","",""
"","null","html-keyboard-response","156","2.0.0","280154","p32p2a4fdbw","bigger","herson","accuracy test","no","<div style=""font-size:60px;"">+</div>","null","","","","","","",""
"","508","image-keyboard-response","157","2.0.0","280663","p32p2a4fdbw","bigger","herson","accuracy test","no","stimuli/35-Inongruent.jpg","m","","","","","right","m","true"
"","null","html-keyboard-response","158","2.0.0","281572","p32p2a4fdbw","bigger","herson","accuracy test","no","<p>Correct!</p>","null","","","","","","",""
"","null","html-keyboard-response","159","2.0.0","282586","p32p2a4fdbw","bigger","herson","accuracy test","no","<div style=""font-size:60px;"">+</div>","null","","","","","","",""
"","453","image-keyboard-response","160","2.0.0","283039","p32p2a4fdbw","bigger","herson","accuracy test","no","stimuli/4-Inongruent.jpg","m","","","","","right","m","true"
"","318","html-keyboard-response","161","2.0.0","283357","p32p2a4fdbw","bigger","herson","accuracy test","no","<p>Correct!</p>","m","","","","","","",""
"","null","html-keyboard-response","162","2.0.0","284363","p32p2a4fdbw","bigger","herson","accuracy test","no","<div style=""font-size:60px;"">+</div>","null","","","","","","",""
"","479","image-keyboard-response","163","2.0.0","284842","p32p2a4fdbw","bigger","herson","accuracy test","no","stimuli/15-Inongruent.jpg","m","","","","","right","m","true"
"","466","html-keyboard-response","164","2.0.0","285308","p32p2a4fdbw","bigger","herson","accuracy test","no","<p>Correct!</p>","m","","","","","","",""
"","null","html-keyboard-response","165","2.0.0","286313","p32p2a4fdbw","bigger","herson","accuracy test","no","<div style=""font-size:60px;"">+</div>","null","","","","","","",""
"","513","image-keyboard-response","166","2.0.0","286827","p32p2a4fdbw","bigger","herson","accuracy test","no","stimuli/33-Congruent.jpg","z","","","","","left","z","true"
"","304","html-keyboard-response","167","2.0.0","287131","p32p2a4fdbw","bigger","herson","accuracy test","no","<p>Correct!</p>","z","","","","","","",""
"","null","html-keyboard-response","168","2.0.0","288134","p32p2a4fdbw","bigger","herson","accuracy test","no","<div style=""font-size:60px;"">+</div>","null","","","","","","",""
"","697","image-keyboard-response","169","2.0.0","288832","p32p2a4fdbw","bigger","herson","accuracy test","no","stimuli/5-Inongruent.jpg","m","","","","","right","m","true"
"","null","html-keyboard-response","170","2.0.0","289740","p32p2a4fdbw","bigger","herson","accuracy test","no","<p>Correct!</p>","null","","","","","","",""
"","null","html-keyboard-response","171","2.0.0","290754","p32p2a4fdbw","bigger","herson","accuracy test","no","<div style=""font-size:60px;"">+</div>","null","","","","","","",""
"","414","image-keyboard-response","172","2.0.0","291169","p32p2a4fdbw","bigger","herson","accuracy test","no","stimuli/10-Congruent.jpg","z","","","","","left","z","true"
"","243","html-keyboard-response","173","2.0.0","291412","p32p2a4fdbw","bigger","herson","accuracy test","no","<p>Correct!</p>","z","","","","","","",""
"","null","html-keyboard-response","174","2.0.0","292427","p32p2a4fdbw","bigger","herson","accuracy test","no","<div style=""font-size:60px;"">+</div>","null","","","","","","",""
"","422","image-keyboard-response","175","2.0.0","292850","p32p2a4fdbw","bigger","herson","accuracy test","no","stimuli/24-Congruent.jpg","z","","","","","left","z","true"
"","175","html-keyboard-response","176","2.0.0","293025","p32p2a4fdbw","bigger","herson","accuracy test","no","<p>Correct!</p>","z","","","","","","",""
"","null","html-keyboard-response","177","2.0.0","294037","p32p2a4fdbw","bigger","herson","accuracy test","no","<div style=""font-size:60px;"">+</div>","null","","","","","","",""
"","328","image-keyboard-response","178","2.0.0","294365","p32p2a4fdbw","bigger","herson","accuracy test","no","stimuli/9-Inongruent.jpg","m","","","","","right","m","true"
"","174","html-keyboard-response","179","2.0.0","294539","p32p2a4fdbw","bigger","herson","accuracy test","no","<p>Correct!</p>","m","","","","","","",""
"","null","html-keyboard-response","180","2.0.0","295551","p32p2a4fdbw","bigger","herson","accuracy test","no","<div style=""font-size:60px;"">+</div>","null","","","","","","",""
"","406","image-keyboard-response","181","2.0.0","295957","p32p2a4fdbw","bigger","herson","accuracy test","no","stimuli/14-Congruent.jpg","z","","","","","left","z","true"
"","411","html-keyboard-response","182","2.0.0","296368","p32p2a4fdbw","bigger","herson","accuracy test","no","<p>Correct!</p>","z","","","","","","",""
"","null","html-keyboard-response","183","2.0.0","297382","p32p2a4fdbw","bigger","herson","accuracy test","no","<div style=""font-size:60px;"">+</div>","null","","","","","","",""
"","457","image-keyboard-response","184","2.0.0","297840","p32p2a4fdbw","bigger","herson","accuracy test","no","stimuli/23-Inongruent.jpg","m","","","","","right","m","true"
"","588","html-keyboard-response","185","2.0.0","298428","p32p2a4fdbw","bigger","herson","accuracy test","no","<p>Correct!</p>","m","","","","","","",""
"","null","html-keyboard-response","186","2.0.0","299441","p32p2a4fdbw","bigger","herson","accuracy test","no","<div style=""font-size:60px;"">+</div>","null","","","","","","",""
"","498","image-keyboard-response","187","2.0.0","299940","p32p2a4fdbw","bigger","herson","accuracy test","no","stimuli/20-Inongruent.jpg","m","","","","","right","m","true"
"","154","html-keyboard-response","188","2.0.0","300095","p32p2a4fdbw","bigger","herson","accuracy test","no","<p>Correct!</p>","m","","","","","","",""
"","null","html-keyboard-response","189","2.0.0","301102","p32p2a4fdbw","bigger","herson","accuracy test","no","<div style=""font-size:60px;"">+</div>","null","","","","","","",""
"","383","image-keyboard-response","190","2.0.0","301486","p32p2a4fdbw","bigger","herson","accuracy test","no","stimuli/36-Congruent.jpg","z","","","","","left","z","true"
"","162","html-keyboard-response","191","2.0.0","301648","p32p2a4fdbw","bigger","herson","accuracy test","no","<p>Correct!</p>","z","","","","","","",""
"","null","html-keyboard-response","192","2.0.0","302654","p32p2a4fdbw","bigger","herson","accuracy test","no","<div style=""font-size:60px;"">+</div>","null","","","","","","",""
"","453","image-keyboard-response","193","2.0.0","303107","p32p2a4fdbw","bigger","herson","accuracy test","no","stimuli/18-Congruent.jpg","z","","","","","left","z","true"
"","175","html-keyboard-response","194","2.0.0","303282","p32p2a4fdbw","bigger","herson","accuracy test","no","<p>Correct!</p>","z","","","","","","",""
"","null","html-keyboard-response","195","2.0.0","304294","p32p2a4fdbw","bigger","herson","accuracy test","no","<div style=""font-size:60px;"">+</div>","null","","","","","","",""
"","305","image-keyboard-response","196","2.0.0","304599","p32p2a4fdbw","bigger","herson","accuracy test","no","stimuli/7-Inongruent.jpg","m","","","","","right","m","true"
"","182","html-keyboard-response","197","2.0.0","304781","p32p2a4fdbw","bigger","herson","accuracy test","no","<p>Correct!</p>","m","","","","","","",""
"","null","html-keyboard-response","198","2.0.0","305794","p32p2a4fdbw","bigger","herson","accuracy test","no","<div style=""font-size:60px;"">+</div>","null","","","","","","",""
"","466","image-keyboard-response","199","2.0.0","306260","p32p2a4fdbw","bigger","herson","accuracy test","no","stimuli/3-Inongruent.jpg","m","","","","","right","m","true"
"","168","html-keyboard-response","200","2.0.0","306428","p32p2a4fdbw","bigger","herson","accuracy test","no","<p>Correct!</p>","m","","","","","","",""
"","null","html-keyboard-response","201","2.0.0","307430","p32p2a4fdbw","bigger","herson","accuracy test","no","<div style=""font-size:60px;"">+</div>","null","","","","","","",""
"","410","image-keyboard-response","202","2.0.0","307840","p32p2a4fdbw","bigger","herson","accuracy test","no","stimuli/8-Congruent.jpg","z","","","","","left","z","true"
"","202","html-keyboard-response","203","2.0.0","308042","p32p2a4fdbw","bigger","herson","accuracy test","no","<p>Correct!</p>","z","","","","","","",""
"","null","html-keyboard-response","204","2.0.0","309048","p32p2a4fdbw","bigger","herson","accuracy test","no","<div style=""font-size:60px;"">+</div>","null","","","","","","",""
"","459","image-keyboard-response","205","2.0.0","309507","p32p2a4fdbw","bigger","herson","accuracy test","no","stimuli/17-Congruent.jpg","z","","","","","left","z","true"
"","270","html-keyboard-response","206","2.0.0","309777","p32p2a4fdbw","bigger","herson","accuracy test","no","<p>Correct!</p>","z","","","","","","",""
"","null","html-keyboard-response","207","2.0.0","310778","p32p2a4fdbw","bigger","herson","accuracy test","no","<div style=""font-size:60px;"">+</div>","null","","","","","","",""
"","510","image-keyboard-response","208","2.0.0","311290","p32p2a4fdbw","bigger","herson","accuracy test","no","stimuli/28-Congruent.jpg","z","","","","","left","z","true"
"","169","html-keyboard-response","209","2.0.0","311458","p32p2a4fdbw","bigger","herson","accuracy test","no","<p>Correct!</p>","z","","","","","","",""
"","null","html-keyboard-response","210","2.0.0","312473","p32p2a4fdbw","bigger","herson","accuracy test","no","<div style=""font-size:60px;"">+</div>","null","","","","","","",""
"","538","image-keyboard-response","211","2.0.0","313012","p32p2a4fdbw","bigger","herson","accuracy test","no","stimuli/2-Inongruent.jpg","m","","","","","right","m","true"
"","169","html-keyboard-response","212","2.0.0","313180","p32p2a4fdbw","bigger","herson","accuracy test","no","<p>Correct!</p>","m","","","","","","",""
"","null","html-keyboard-response","213","2.0.0","314184","p32p2a4fdbw","bigger","herson","accuracy test","no","<div style=""font-size:60px;"">+</div>","null","","","","","","",""
"","346","image-keyboard-response","214","2.0.0","314531","p32p2a4fdbw","bigger","herson","accuracy test","no","stimuli/4-Congruent.jpg","z","","","","","left","z","true"
"","155","html-keyboard-response","215","2.0.0","314686","p32p2a4fdbw","bigger","herson","accuracy test","no","<p>Correct!</p>","z","","","","","","",""
"","null","html-keyboard-response","216","2.0.0","315696","p32p2a4fdbw","bigger","herson","accuracy test","no","<div style=""font-size:60px;"">+</div>","null","","","","","","",""
"","379","image-keyboard-response","217","2.0.0","316077","p32p2a4fdbw","bigger","herson","accuracy test","no","stimuli/19-Congruent.jpg","z","","","","","left","z","true"
"","162","html-keyboard-response","218","2.0.0","316239","p32p2a4fdbw","bigger","herson","accuracy test","no","<p>Correct!</p>","z","","","","","","",""
"","null","html-keyboard-response","219","2.0.0","317254","p32p2a4fdbw","bigger","herson","accuracy test","no","<div style=""font-size:60px;"">+</div>","null","","","","","","",""
"","395","image-keyboard-response","220","2.0.0","317650","p32p2a4fdbw","bigger","herson","accuracy test","no","stimuli/36-Inongruent.jpg","m","","","","","right","m","true"
"","155","html-keyboard-response","221","2.0.0","317804","p32p2a4fdbw","bigger","herson","accuracy test","no","<p>Correct!</p>","m","","","","","","",""
"","null","html-keyboard-response","222","2.0.0","318812","p32p2a4fdbw","bigger","herson","accuracy test","no","<div style=""font-size:60px;"">+</div>","null","","","","","","",""
"","403","image-keyboard-response","223","2.0.0","319216","p32p2a4fdbw","bigger","herson","accuracy test","no","stimuli/16-Congruent.jpg","z","","","","","left","z","true"
"","161","html-keyboard-response","224","2.0.0","319377","p32p2a4fdbw","bigger","herson","accuracy test","no","<p>Correct!</p>","z","","","","","","",""
"","null","html-keyboard-response","225","2.0.0","320382","p32p2a4fdbw","bigger","herson","accuracy test","no","<div style=""font-size:60px;"">+</div>","null","","","","","","",""
"","406","image-keyboard-response","226","2.0.0","320789","p32p2a4fdbw","bigger","herson","accuracy test","no","stimuli/7-Congruent.jpg","z","","","","","left","z","true"
"","169","html-keyboard-response","227","2.0.0","320958","p32p2a4fdbw","bigger","herson","accuracy test","no","<p>Correct!</p>","z","","","","","","",""
"","null","html-keyboard-response","228","2.0.0","321968","p32p2a4fdbw","bigger","herson","accuracy test","no","<div style=""font-size:60px;"">+</div>","null","","","","","","",""
"","367","image-keyboard-response","229","2.0.0","322335","p32p2a4fdbw","bigger","herson","accuracy test","no","stimuli/7-Inongruent.jpg","m","","","","","right","m","true"
"","176","html-keyboard-response","230","2.0.0","322511","p32p2a4fdbw","bigger","herson","accuracy test","no","<p>Correct!</p>","m","","","","","","",""
"","null","html-keyboard-response","231","2.0.0","323522","p32p2a4fdbw","bigger","herson","accuracy test","no","<div style=""font-size:60px;"">+</div>","null","","","","","","",""
"","588","image-keyboard-response","232","2.0.0","324111","p32p2a4fdbw","bigger","herson","accuracy test","no","stimuli/26-Inongruent.jpg","m","","","","","right","m","true"
"","175","html-keyboard-response","233","2.0.0","324286","p32p2a4fdbw","bigger","herson","accuracy test","no","<p>Correct!</p>","m","","","","","","",""
"","null","html-keyboard-response","234","2.0.0","325298","p32p2a4fdbw","bigger","herson","accuracy test","no","<div style=""font-size:60px;"">+</div>","null","","","","","","",""
"","506","image-keyboard-response","235","2.0.0","325805","p32p2a4fdbw","bigger","herson","accuracy test","no","stimuli/13-Inongruent.jpg","m","","","","","right","m","true"
"","176","html-keyboard-response","236","2.0.0","325981","p32p2a4fdbw","bigger","herson","accuracy test","no","<p>Correct!</p>","m","","","","","","",""
"","null","html-keyboard-response","237","2.0.0","326984","p32p2a4fdbw","bigger","herson","accuracy test","no","<div style=""font-size:60px;"">+</div>","null","","","","","","",""
"","353","image-keyboard-response","238","2.0.0","327338","p32p2a4fdbw","bigger","herson","accuracy test","no","stimuli/5-Inongruent.jpg","m","","","","","right","m","true"
"","162","html-keyboard-response","239","2.0.0","327500","p32p2a4fdbw","bigger","herson","accuracy test","no","<p>Correct!</p>","m","","","","","","",""
"","null","html-keyboard-response","240","2.0.0","328513","p32p2a4fdbw","bigger","herson","accuracy test","no","<div style=""font-size:60px;"">+</div>","null","","","","","","",""
"","715","image-keyboard-response","241","2.0.0","329229","p32p2a4fdbw","bigger","herson","accuracy test","no","stimuli/12-Inongruent.jpg","z","","","","","right","m","false"
"","null","html-keyboard-response","242","2.0.0","334232","p32p2a4fdbw","bigger","herson","accuracy test","no","<p>Incorrect.</p><p>Remember to select the <b>bigger</b> image.</p><p>Continuing in 5 seconds...</p>","null","","","","","","",""
"","null","html-keyboard-response","243","2.0.0","335244","p32p2a4fdbw","bigger","herson","accuracy test","no","<div style=""font-size:60px;"">+</div>","null","","","","","","",""
"","438","image-keyboard-response","244","2.0.0","335682","p32p2a4fdbw","bigger","herson","accuracy test","no","stimuli/32-Inongruent.jpg","m","","","","","right","m","true"
"","216","html-keyboard-response","245","2.0.0","335898","p32p2a4fdbw","bigger","herson","accuracy test","no","<p>Correct!</p>","m","","","","","","",""
"","null","html-keyboard-response","246","2.0.0","336908","p32p2a4fdbw","bigger","herson","accuracy test","no","<div style=""font-size:60px;"">+</div>","null","","","","","","",""
"","394","image-keyboard-response","247","2.0.0","337303","p32p2a4fdbw","bigger","herson","accuracy test","no","stimuli/5-Congruent.jpg","z","","","","","left","z","true"
"","189","html-keyboard-response","248","2.0.0","337492","p32p2a4fdbw","bigger","herson","accuracy test","no","<p>Correct!</p>","z","","","","","","",""
"","null","html-keyboard-response","249","2.0.0","338501","p32p2a4fdbw","bigger","herson","accuracy test","no","<div style=""font-size:60px;"">+</div>","null","","","","","","",""
"","1784","image-keyboard-response","250","2.0.0","340286","p32p2a4fdbw","bigger","herson","accuracy test","no","stimuli/20-Congruent.jpg","z","","","","","left","z","true"
"","189","html-keyboard-response","251","2.0.0","340475","p32p2a4fdbw","bigger","herson","accuracy test","no","<p>Correct!</p>","z","","","","","","",""
"","null","html-keyboard-response","252","2.0.0","341481","p32p2a4fdbw","bigger","herson","accuracy test","no","<div style=""font-size:60px;"">+</div>","null","","","","","","",""
"","506","image-keyboard-response","253","2.0.0","341988","p32p2a4fdbw","bigger","herson","accuracy test","no","stimuli/27-Inongruent.jpg","m","","","","","right","m","true"
"","256","html-keyboard-response","254","2.0.0","342244","p32p2a4fdbw","bigger","herson","accuracy test","no","<p>Correct!</p>","m","","","","","","",""
"","null","html-keyboard-response","255","2.0.0","343247","p32p2a4fdbw","bigger","herson","accuracy test","no","<div style=""font-size:60px;"">+</div>","null","","","","","","",""
"","476","image-keyboard-response","256","2.0.0","343723","p32p2a4fdbw","bigger","herson","accuracy test","no","stimuli/4-Inongruent.jpg","m","","","","","right","m","true"
"","216","html-keyboard-response","257","2.0.0","343939","p32p2a4fdbw","bigger","herson","accuracy test","no","<p>Correct!</p>","m","","","","","","",""
"","null","html-keyboard-response","258","2.0.0","344947","p32p2a4fdbw","bigger","herson","accuracy test","no","<div style=""font-size:60px;"">+</div>","null","","","","","","",""
"","443","image-keyboard-response","259","2.0.0","345391","p32p2a4fdbw","bigger","herson","accuracy test","no","stimuli/5-Congruent.jpg","z","","","","","left","z","true"
"","216","html-keyboard-response","260","2.0.0","345607","p32p2a4fdbw","bigger","herson","accuracy test","no","<p>Correct!</p>","z","","","","","","",""
"","null","html-keyboard-response","261","2.0.0","346621","p32p2a4fdbw","bigger","herson","accuracy test","no","<div style=""font-size:60px;"">+</div>","null","","","","","","",""
"","525","image-keyboard-response","262","2.0.0","347146","p32p2a4fdbw","bigger","herson","accuracy test","no","stimuli/25-Inongruent.jpg","m","","","","","right","m","true"
"","223","html-keyboard-response","263","2.0.0","347369","p32p2a4fdbw","bigger","herson","accuracy test","no","<p>Correct!</p>","m","","","","","","",""
"","null","html-keyboard-response","264","2.0.0","348370","p32p2a4fdbw","bigger","herson","accuracy test","no","<div style=""font-size:60px;"">+</div>","null","","","","","","",""
"","497","image-keyboard-response","265","2.0.0","348868","p32p2a4fdbw","bigger","herson","accuracy test","no","stimuli/9-Inongruent.jpg","m","","","","","right","m","true"
"","141","html-keyboard-response","266","2.0.0","349009","p32p2a4fdbw","bigger","herson","accuracy test","no","<p>Correct!</p>","m","","","","","","",""
"","null","html-keyboard-response","267","2.0.0","350018","p32p2a4fdbw","bigger","herson","accuracy test","no","<div style=""font-size:60px;"">+</div>","null","","","","","","",""
"","463","image-keyboard-response","268","2.0.0","350481","p32p2a4fdbw","bigger","herson","accuracy test","no","stimuli/3-Congruent.jpg","z","","","","","left","z","true"
"","189","html-keyboard-response","269","2.0.0","350670","p32p2a4fdbw","bigger","herson","accuracy test","no","<p>Correct!</p>","z","","","","","","",""
"","null","html-keyboard-response","270","2.0.0","351686","p32p2a4fdbw","bigger","herson","accuracy test","no","<div style=""font-size:60px;"">+</div>","null","","","","","","",""
"","644","image-keyboard-response","271","2.0.0","352331","p32p2a4fdbw","bigger","herson","accuracy test","no","stimuli/35-Congruent.jpg","z","","","","","left","z","true"
"","196","html-keyboard-response","272","2.0.0","352527","p32p2a4fdbw","bigger","herson","accuracy test","no","<p>Correct!</p>","z","","","","","","",""
"","null","html-keyboard-response","273","2.0.0","353531","p32p2a4fdbw","bigger","herson","accuracy test","no","<div style=""font-size:60px;"">+</div>","null","","","","","","",""
"","387","image-keyboard-response","274","2.0.0","353918","p32p2a4fdbw","bigger","herson","accuracy test","no","stimuli/10-Inongruent.jpg","m","","","","","right","m","true"
"","202","html-keyboard-response","275","2.0.0","354120","p32p2a4fdbw","bigger","herson","accuracy test","no","<p>Correct!</p>","m","","","","","","",""
"","null","html-keyboard-response","276","2.0.0","355136","p32p2a4fdbw","bigger","herson","accuracy test","no","<div style=""font-size:60px;"">+</div>","null","","","","","","",""
"","509","image-keyboard-response","277","2.0.0","355646","p32p2a4fdbw","bigger","herson","accuracy test","no","stimuli/14-Inongruent.jpg","m","","","","","right","m","true"
"","210","html-keyboard-response","278","2.0.0","355856","p32p2a4fdbw","bigger","herson","accuracy test","no","<p>Correct!</p>","m","","","","","","",""
"","null","html-keyboard-response","279","2.0.0","356867","p32p2a4fdbw","bigger","herson","accuracy test","no","<div style=""font-size:60px;"">+</div>","null","","","","","","",""
"","501","image-keyboard-response","280","2.0.0","357369","p32p2a4fdbw","bigger","herson","accuracy test","no","stimuli/19-Inongruent.jpg","m","","","","","right","m","true"
"","181","html-keyboard-response","281","2.0.0","357550","p32p2a4fdbw","bigger","herson","accuracy test","no","<p>Correct!</p>","m","","","","","","",""
"","null","html-keyboard-response","282","2.0.0","358552","p32p2a4fdbw","bigger","herson","accuracy test","no","<div style=""font-size:60px;"">+</div>","null","","","","","","",""
"","409","image-keyboard-response","283","2.0.0","358962","p32p2a4fdbw","bigger","herson","accuracy test","no","stimuli/6-Inongruent.jpg","m","","","","","right","m","true"
"","208","html-keyboard-response","284","2.0.0","359170","p32p2a4fdbw","bigger","herson","accuracy test","no","<p>Correct!</p>","m","","","","","","",""
"","null","html-keyboard-response","285","2.0.0","360185","p32p2a4fdbw","bigger","herson","accuracy test","no","<div style=""font-size:60px;"">+</div>","null","","","","","","",""
"","362","image-keyboard-response","286","2.0.0","360547","p32p2a4fdbw","bigger","herson","accuracy test","no","stimuli/34-Congruent.jpg","z","","","","","left","z","true"
"","182","html-keyboard-response","287","2.0.0","360729","p32p2a4fdbw","bigger","herson","accuracy test","no","<p>Correct!</p>","z","","","","","","",""
"","null","html-keyboard-response","288","2.0.0","361731","p32p2a4fdbw","bigger","herson","accuracy test","no","<div style=""font-size:60px;"">+</div>","null","","","","","","",""
"","409","image-keyboard-response","289","2.0.0","362142","p32p2a4fdbw","bigger","herson","accuracy test","no","stimuli/34-Inongruent.jpg","m","","","","","right","m","true"
"","216","html-keyboard-response","290","2.0.0","362357","p32p2a4fdbw","bigger","herson","accuracy test","no","<p>Correct!</p>","m","","","","","","",""
"","null","html-keyboard-response","291","2.0.0","363366","p32p2a4fdbw","bigger","herson","accuracy test","no","<div style=""font-size:60px;"">+</div>","null","","","","","","",""
"","463","image-keyboard-response","292","2.0.0","363829","p32p2a4fdbw","bigger","herson","accuracy test","no","stimuli/13-Congruent.jpg","z","","","","","left","z","true"
"","210","html-keyboard-response","293","2.0.0","364039","p32p2a4fdbw","bigger","herson","accuracy test","no","<p>Correct!</p>","z","","","","","","",""
"","null","html-keyboard-response","294","2.0.0","365050","p32p2a4fdbw","bigger","herson","accuracy test","no","<div style=""font-size:60px;"">+</div>","null","","","","","","",""
"","459","image-keyboard-response","295","2.0.0","365510","p32p2a4fdbw","bigger","herson","accuracy test","no","stimuli/30-Congruent.jpg","z","","","","","left","z","true"
"","210","html-keyboard-response","296","2.0.0","365720","p32p2a4fdbw","bigger","herson","accuracy test","no","<p>Correct!</p>","z","","","","","","",""
"","null","html-keyboard-response","297","2.0.0","366731","p32p2a4fdbw","bigger","herson","accuracy test","no","<div style=""font-size:60px;"">+</div>","null","","","","","","",""
"","338","image-keyboard-response","298","2.0.0","367070","p32p2a4fdbw","bigger","herson","accuracy test","no","stimuli/12-Inongruent.jpg","m","","","","","right","m","true"
"","216","html-keyboard-response","299","2.0.0","367286","p32p2a4fdbw","bigger","herson","accuracy test","no","<p>Correct!</p>","m","","","","","","",""
"","null","html-keyboard-response","300","2.0.0","368300","p32p2a4fdbw","bigger","herson","accuracy test","no","<div style=""font-size:60px;"">+</div>","null","","","","","","",""
"","463","image-keyboard-response","301","2.0.0","368764","p32p2a4fdbw","bigger","herson","accuracy test","no","stimuli/1-Inongruent.jpg","m","","","","","right","m","true"
"","216","html-keyboard-response","302","2.0.0","368980","p32p2a4fdbw","bigger","herson","accuracy test","no","<p>Correct!</p>","m","","","","","","",""
"","null","html-keyboard-response","303","2.0.0","369986","p32p2a4fdbw","bigger","herson","accuracy test","no","<div style=""font-size:60px;"">+</div>","null","","","","","","",""
"","411","image-keyboard-response","304","2.0.0","370398","p32p2a4fdbw","bigger","herson","accuracy test","no","stimuli/23-Inongruent.jpg","m","","","","","right","m","true"
"","223","html-keyboard-response","305","2.0.0","370621","p32p2a4fdbw","bigger","herson","accuracy test","no","<p>Correct!</p>","m","","","","","","",""
"","null","html-keyboard-response","306","2.0.0","371637","p32p2a4fdbw","bigger","herson","accuracy test","no","<div style=""font-size:60px;"">+</div>","null","","","","","","",""
"","576","image-keyboard-response","307","2.0.0","372214","p32p2a4fdbw","bigger","herson","accuracy test","no","stimuli/2-Congruent.jpg","z","","","","","left","z","true"
"","189","html-keyboard-response","308","2.0.0","372403","p32p2a4fdbw","bigger","herson","accuracy test","no","<p>Correct!</p>","z","","","","","","",""
"","null","html-keyboard-response","309","2.0.0","373413","p32p2a4fdbw","bigger","herson","accuracy test","no","<div style=""font-size:60px;"">+</div>","null","","","","","","",""
"","609","image-keyboard-response","310","2.0.0","374023","p32p2a4fdbw","bigger","herson","accuracy test","no","stimuli/8-Congruent.jpg","z","","","","","left","z","true"
"","189","html-keyboard-response","311","2.0.0","374212","p32p2a4fdbw","bigger","herson","accuracy test","no","<p>Correct!</p>","z","","","","","","",""
"","null","html-keyboard-response","312","2.0.0","375217","p32p2a4fdbw","bigger","herson","accuracy test","no","<div style=""font-size:60px;"">+</div>","null","","","","","","",""
"","466","image-keyboard-response","313","2.0.0","375684","p32p2a4fdbw","bigger","herson","accuracy test","no","stimuli/20-Inongruent.jpg","m","","","","","right","m","true"
"","250","html-keyboard-response","314","2.0.0","375934","p32p2a4fdbw","bigger","herson","accuracy test","no","<p>Correct!</p>","m","","","","","","",""
"","null","html-keyboard-response","315","2.0.0","376937","p32p2a4fdbw","bigger","herson","accuracy test","no","<div style=""font-size:60px;"">+</div>","null","","","","","","",""
"","529","image-keyboard-response","316","2.0.0","377466","p32p2a4fdbw","bigger","herson","accuracy test","no","stimuli/29-Congruent.jpg","z","","","","","left","z","true"
"","201","html-keyboard-response","317","2.0.0","377668","p32p2a4fdbw","bigger","herson","accuracy test","no","<p>Correct!</p>","z","","","","","","",""
"","null","html-keyboard-response","318","2.0.0","378669","p32p2a4fdbw","bigger","herson","accuracy test","no","<div style=""font-size:60px;"">+</div>","null","","","","","","",""
"","632","image-keyboard-response","319","2.0.0","379302","p32p2a4fdbw","bigger","herson","accuracy test","no","stimuli/21-Congruent.jpg","z","","","","","left","z","true"
"","175","html-keyboard-response","320","2.0.0","379478","p32p2a4fdbw","bigger","herson","accuracy test","no","<p>Correct!</p>","z","","","","","","",""
"","null","html-keyboard-response","321","2.0.0","380490","p32p2a4fdbw","bigger","herson","accuracy test","no","<div style=""font-size:60px;"">+</div>","null","","","","","","",""
"","581","image-keyboard-response","322","2.0.0","381071","p32p2a4fdbw","bigger","herson","accuracy test","no","stimuli/31-Congruent.jpg","z","","","","","left","z","true"
"","189","html-keyboard-response","323","2.0.0","381260","p32p2a4fdbw","bigger","herson","accuracy test","no","<p>Correct!</p>","z","","","","","","",""
"","null","html-keyboard-response","324","2.0.0","382268","p32p2a4fdbw","bigger","herson","accuracy test","no","<div style=""font-size:60px;"">+</div>","null","","","","","","",""
"","517","image-keyboard-response","325","2.0.0","382786","p32p2a4fdbw","bigger","herson","accuracy test","no","stimuli/13-Congruent.jpg","z","","","","","left","z","true"
"","196","html-keyboard-response","326","2.0.0","382982","p32p2a4fdbw","bigger","herson","accuracy test","no","<p>Correct!</p>","z","","","","","","",""
"","null","html-keyboard-response","327","2.0.0","383996","p32p2a4fdbw","bigger","herson","accuracy test","no","<div style=""font-size:60px;"">+</div>","null","","","","","","",""
"","470","image-keyboard-response","328","2.0.0","384467","p32p2a4fdbw","bigger","herson","accuracy test","no","stimuli/17-Inongruent.jpg","m","","","","","right","m","true"
"","236","html-keyboard-response","329","2.0.0","384703","p32p2a4fdbw","bigger","herson","accuracy test","no","<p>Correct!</p>","m","","","","","","",""
"","null","html-keyboard-response","330","2.0.0","385712","p32p2a4fdbw","bigger","herson","accuracy test","no","<div style=""font-size:60px;"">+</div>","null","","","","","","",""
"","428","image-keyboard-response","331","2.0.0","386141","p32p2a4fdbw","bigger","herson","accuracy test","no","stimuli/1-Inongruent.jpg","m","","","","","right","m","true"
"","237","html-keyboard-response","332","2.0.0","386378","p32p2a4fdbw","bigger","herson","accuracy test","no","<p>Correct!</p>","m","","","","","","",""
"","null","html-keyboard-response","333","2.0.0","387380","p32p2a4fdbw","bigger","herson","accuracy test","no","<div style=""font-size:60px;"">+</div>","null","","","","","","",""
"","1062","image-keyboard-response","334","2.0.0","388443","p32p2a4fdbw","bigger","herson","accuracy test","no","stimuli/7-Congruent.jpg","z","","","","","left","z","true"
"","230","html-keyboard-response","335","2.0.0","388673","p32p2a4fdbw","bigger","herson","accuracy test","no","<p>Correct!</p>","z","","","","","","",""
"","null","html-keyboard-response","336","2.0.0","389676","p32p2a4fdbw","bigger","herson","accuracy test","no","<div style=""font-size:60px;"">+</div>","null","","","","","","",""
"","678","image-keyboard-response","337","2.0.0","390354","p32p2a4fdbw","bigger","herson","accuracy test","no","stimuli/18-Congruent.jpg","z","","","","","left","z","true"
"","209","html-keyboard-response","338","2.0.0","390563","p32p2a4fdbw","bigger","herson","accuracy test","no","<p>Correct!</p>","z","","","","","","",""
"","null","html-keyboard-response","339","2.0.0","391567","p32p2a4fdbw","bigger","herson","accuracy test","no","<div style=""font-size:60px;"">+</div>","null","","","","","","",""
"","880","image-keyboard-response","340","2.0.0","392447","p32p2a4fdbw","bigger","herson","accuracy test","no","stimuli/1-Congruent.jpg","z","","","","","left","z","true"
"","189","html-keyboard-response","341","2.0.0","392636","p32p2a4fdbw","bigger","herson","accuracy test","no","<p>Correct!</p>","z","","","","","","",""
"","null","html-keyboard-response","342","2.0.0","393642","p32p2a4fdbw","bigger","herson","accuracy test","no","<div style=""font-size:60px;"">+</div>","null","","","","","","",""
"","1337","image-keyboard-response","343","2.0.0","394979","p32p2a4fdbw","bigger","herson","accuracy test","no","stimuli/32-Congruent.jpg","z","","","","","left","z","true"
"","141","html-keyboard-response","344","2.0.0","395120","p32p2a4fdbw","bigger","herson","accuracy test","no","<p>Correct!</p>","z","","","","","","",""
"","null","html-keyboard-response","345","2.0.0","396125","p32p2a4fdbw","bigger","herson","accuracy test","no","<div style=""font-size:60px;"">+</div>","null","","","","","","",""
"","446","image-keyboard-response","346","2.0.0","396572","p32p2a4fdbw","bigger","herson","accuracy test","no","stimuli/33-Inongruent.jpg","m","","","","","right","m","true"
"","128","html-keyboard-response","347","2.0.0","396700","p32p2a4fdbw","bigger","herson","accuracy test","no","<p>Correct!</p>","m","","","","","","",""
"","null","html-keyboard-response","348","2.0.0","397706","p32p2a4fdbw","bigger","herson","accuracy test","no","<div style=""font-size:60px;"">+</div>","null","","","","","","",""
"","634","image-keyboard-response","349","2.0.0","398341","p32p2a4fdbw","bigger","herson","accuracy test","no","stimuli/35-Congruent.jpg","z","","","","","left","z","true"
"","155","html-keyboard-response","350","2.0.0","398496","p32p2a4fdbw","bigger","herson","accuracy test","no","<p>Correct!</p>","z","","","","","","",""
"","null","html-keyboard-response","351","2.0.0","399501","p32p2a4fdbw","bigger","herson","accuracy test","no","<div style=""font-size:60px;"">+</div>","null","","","","","","",""
"","589","image-keyboard-response","352","2.0.0","400090","p32p2a4fdbw","bigger","herson","accuracy test","no","stimuli/12-Congruent.jpg","z","","","","","left","z","true"
"","141","html-keyboard-response","353","2.0.0","400231","p32p2a4fdbw","bigger","herson","accuracy test","no","<p>Correct!</p>","z","","","","","","",""
"","null","html-keyboard-response","354","2.0.0","401235","p32p2a4fdbw","bigger","herson","accuracy test","no","<div style=""font-size:60px;"">+</div>","null","","","","","","",""
"","509","image-keyboard-response","355","2.0.0","401744","p32p2a4fdbw","bigger","herson","accuracy test","no","stimuli/4-Congruent.jpg","z","","","","","left","z","true"
"","147","html-keyboard-response","356","2.0.0","401892","p32p2a4fdbw","bigger","herson","accuracy test","no","<p>Correct!</p>","z","","","","","","",""
"","null","html-keyboard-response","357","2.0.0","402907","p32p2a4fdbw","bigger","herson","accuracy test","no","<div style=""font-size:60px;"">+</div>","null","","","","","","",""
"","889","image-keyboard-response","358","2.0.0","403796","p32p2a4fdbw","bigger","herson","accuracy test","no","stimuli/22-Congruent.jpg","z","","","","","left","z","true"
"","149","html-keyboard-response","359","2.0.0","403945","p32p2a4fdbw","bigger","herson","accuracy test","no","<p>Correct!</p>","z","","","","","","",""
"","null","html-keyboard-response","360","2.0.0","404948","p32p2a4fdbw","bigger","herson","accuracy test","no","<div style=""font-size:60px;"">+</div>","null","","","","","","",""
"","509","image-keyboard-response","361","2.0.0","405457","p32p2a4fdbw","bigger","herson","accuracy test","no","stimuli/34-Congruent.jpg","z","","","","","left","z","true"
"","209","html-keyboard-response","362","2.0.0","405666","p32p2a4fdbw","bigger","herson","accuracy test","no","<p>Correct!</p>","z","","","","","","",""
"","null","html-keyboard-response","363","2.0.0","406678","p32p2a4fdbw","bigger","herson","accuracy test","no","<div style=""font-size:60px;"">+</div>","null","","","","","","",""
"","371","image-keyboard-response","364","2.0.0","407050","p32p2a4fdbw","bigger","herson","accuracy test","no","stimuli/16-Inongruent.jpg","m","","","","","right","m","true"
"","155","html-keyboard-response","365","2.0.0","407205","p32p2a4fdbw","bigger","herson","accuracy test","no","<p>Correct!</p>","m","","","","","","",""
"","null","html-keyboard-response","366","2.0.0","408207","p32p2a4fdbw","bigger","herson","accuracy test","no","<div style=""font-size:60px;"">+</div>","null","","","","","","",""
"","706","image-keyboard-response","367","2.0.0","408914","p32p2a4fdbw","bigger","herson","accuracy test","no","stimuli/10-Inongruent.jpg","m","","","","","right","m","true"
"","155","html-keyboard-response","368","2.0.0","409069","p32p2a4fdbw","bigger","herson","accuracy test","no","<p>Correct!</p>","m","","","","","","",""
"","null","html-keyboard-response","369","2.0.0","410077","p32p2a4fdbw","bigger","herson","accuracy test","no","<div style=""font-size:60px;"">+</div>","null","","","","","","",""
"","955","image-keyboard-response","370","2.0.0","411033","p32p2a4fdbw","bigger","herson","accuracy test","no","stimuli/19-Congruent.jpg","z","","","","","left","z","true"
"","142","html-keyboard-response","371","2.0.0","411175","p32p2a4fdbw","bigger","herson","accuracy test","no","<p>Correct!</p>","z","","","","","","",""
"","null","html-keyboard-response","372","2.0.0","412178","p32p2a4fdbw","bigger","herson","accuracy test","no","<div style=""font-size:60px;"">+</div>","null","","","","","","",""
"","578","image-keyboard-response","373","2.0.0","412756","p32p2a4fdbw","bigger","herson","accuracy test","no","stimuli/31-Inongruent.jpg","m","","","","","right","m","true"
"","181","html-keyboard-response","374","2.0.0","412937","p32p2a4fdbw","bigger","herson","accuracy test","no","<p>Correct!</p>","m","","","","","","",""
"","null","html-keyboard-response","375","2.0.0","413952","p32p2a4fdbw","bigger","herson","accuracy test","no","<div style=""font-size:60px;"">+</div>","null","","","","","","",""
"","457","image-keyboard-response","376","2.0.0","414410","p32p2a4fdbw","bigger","herson","accuracy test","no","stimuli/11-Congruent.jpg","z","","","","","left","z","true"
"","196","html-keyboard-response","377","2.0.0","414606","p32p2a4fdbw","bigger","herson","accuracy test","no","<p>Correct!</p>","z","","","","","","",""
"","null","html-keyboard-response","378","2.0.0","415610","p32p2a4fdbw","bigger","herson","accuracy test","no","<div style=""font-size:60px;"">+</div>","null","","","","","","",""
"","655","image-keyboard-response","379","2.0.0","416266","p32p2a4fdbw","bigger","herson","accuracy test","no","stimuli/22-Congruent.jpg","z","","","","","left","z","true"
"","183","html-keyboard-response","380","2.0.0","416449","p32p2a4fdbw","bigger","herson","accuracy test","no","<p>Correct!</p>","z","","","","","","",""
"","null","html-keyboard-response","381","2.0.0","417459","p32p2a4fdbw","bigger","herson","accuracy test","no","<div style=""font-size:60px;"">+</div>","null","","","","","","",""
"","791","image-keyboard-response","382","2.0.0","418251","p32p2a4fdbw","bigger","herson","accuracy test","no","stimuli/25-Congruent.jpg","z","","","","","left","z","true"
"","196","html-keyboard-response","383","2.0.0","418447","p32p2a4fdbw","bigger","herson","accuracy test","no","<p>Correct!</p>","z","","","","","","",""
"","null","html-keyboard-response","384","2.0.0","419450","p32p2a4fdbw","bigger","herson","accuracy test","no","<div style=""font-size:60px;"">+</div>","null","","","","","","",""
"","407","image-keyboard-response","385","2.0.0","419858","p32p2a4fdbw","bigger","herson","accuracy test","no","stimuli/15-Inongruent.jpg","m","","","","","right","m","true"
"","176","html-keyboard-response","386","2.0.0","420034","p32p2a4fdbw","bigger","herson","accuracy test","no","<p>Correct!</p>","m","","","","","","",""
"","null","html-keyboard-response","387","2.0.0","421043","p32p2a4fdbw","bigger","herson","accuracy test","no","<div style=""font-size:60px;"">+</div>","null","","","","","","",""
"","380","image-keyboard-response","388","2.0.0","421424","p32p2a4fdbw","bigger","herson","accuracy test","no","stimuli/33-Congruent.jpg","z","","","","","left","z","true"
"","142","html-keyboard-response","389","2.0.0","421566","p32p2a4fdbw","bigger","herson","accuracy test","no","<p>Correct!</p>","z","","","","","","",""
"","null","html-keyboard-response","390","2.0.0","422571","p32p2a4fdbw","bigger","herson","accuracy test","no","<div style=""font-size:60px;"">+</div>","null","","","","","","",""
"","405","image-keyboard-response","391","2.0.0","422977","p32p2a4fdbw","bigger","herson","accuracy test","no","stimuli/32-Inongruent.jpg","m","","","","","right","m","true"
"","127","html-keyboard-response","392","2.0.0","423105","p32p2a4fdbw","bigger","herson","accuracy test","no","<p>Correct!</p>","m","","","","","","",""
"","null","html-keyboard-response","393","2.0.0","424120","p32p2a4fdbw","bigger","herson","accuracy test","no","<div style=""font-size:60px;"">+</div>","null","","","","","","",""
"","545","image-keyboard-response","394","2.0.0","424665","p32p2a4fdbw","bigger","herson","accuracy test","no","stimuli/11-Congruent.jpg","z","","","","","left","z","true"
"","127","html-keyboard-response","395","2.0.0","424793","p32p2a4fdbw","bigger","herson","accuracy test","no","<p>Correct!</p>","z","","","","","","",""
"","null","html-keyboard-response","396","2.0.0","425796","p32p2a4fdbw","bigger","herson","accuracy test","no","<div style=""font-size:60px;"">+</div>","null","","","","","","",""
"","711","image-keyboard-response","397","2.0.0","426508","p32p2a4fdbw","bigger","herson","accuracy test","no","stimuli/14-Congruent.jpg","z","","","","","left","z","true"
"","128","html-keyboard-response","398","2.0.0","426636","p32p2a4fdbw","bigger","herson","accuracy test","no","<p>Correct!</p>","z","","","","","","",""
"","null","html-keyboard-response","399","2.0.0","427640","p32p2a4fdbw","bigger","herson","accuracy test","no","<div style=""font-size:60px;"">+</div>","null","","","","","","",""
"","514","image-keyboard-response","400","2.0.0","428155","p32p2a4fdbw","bigger","herson","accuracy test","no","stimuli/3-Congruent.jpg","z","","","","","left","z","true"
"","156","html-keyboard-response","401","2.0.0","428311","p32p2a4fdbw","bigger","herson","accuracy test","no","<p>Correct!</p>","z","","","","","","",""
"","null","html-keyboard-response","402","2.0.0","429311","p32p2a4fdbw","bigger","herson","accuracy test","no","<div style=""font-size:60px;"">+</div>","null","","","","","","",""
"","524","image-keyboard-response","403","2.0.0","429836","p32p2a4fdbw","bigger","herson","accuracy test","no","stimuli/35-Inongruent.jpg","m","","","","","right","m","true"
"","182","html-keyboard-response","404","2.0.0","430018","p32p2a4fdbw","bigger","herson","accuracy test","no","<p>Correct!</p>","m","","","","","","",""
"","null","html-keyboard-response","405","2.0.0","431025","p32p2a4fdbw","bigger","herson","accuracy test","no","<div style=""font-size:60px;"">+</div>","null","","","","","","",""
"","538","image-keyboard-response","406","2.0.0","431564","p32p2a4fdbw","bigger","herson","accuracy test","no","stimuli/36-Inongruent.jpg","m","","","","","right","m","true"
"","169","html-keyboard-response","407","2.0.0","431733","p32p2a4fdbw","bigger","herson","accuracy test","no","<p>Correct!</p>","m","","","","","","",""
"","null","html-keyboard-response","408","2.0.0","432738","p32p2a4fdbw","bigger","herson","accuracy test","no","<div style=""font-size:60px;"">+</div>","null","","","","","","",""
"","535","image-keyboard-response","409","2.0.0","433273","p32p2a4fdbw","bigger","herson","accuracy test","no","stimuli/1-Congruent.jpg","z","","","","","left","z","true"
"","194","html-keyboard-response","410","2.0.0","433468","p32p2a4fdbw","bigger","herson","accuracy test","no","<p>Correct!</p>","z","","","","","","",""
"","null","html-keyboard-response","411","2.0.0","434470","p32p2a4fdbw","bigger","herson","accuracy test","no","<div style=""font-size:60px;"">+</div>","null","","","","","","",""
"","585","image-keyboard-response","412","2.0.0","435055","p32p2a4fdbw","bigger","herson","accuracy test","no","stimuli/21-Congruent.jpg","z","","","","","left","z","true"
"","202","html-keyboard-response","413","2.0.0","435257","p32p2a4fdbw","bigger","herson","accuracy test","no","<p>Correct!</p>","z","","","","","","",""
"","null","html-keyboard-response","414","2.0.0","436261","p32p2a4fdbw","bigger","herson","accuracy test","no","<div style=""font-size:60px;"">+</div>","null","","","","","","",""
"","656","image-keyboard-response","415","2.0.0","436918","p32p2a4fdbw","bigger","herson","accuracy test","no","stimuli/24-Inongruent.jpg","m","","","","","right","m","true"
"","169","html-keyboard-response","416","2.0.0","437087","p32p2a4fdbw","bigger","herson","accuracy test","no","<p>Correct!</p>","m","","","","","","",""
"","null","html-keyboard-response","417","2.0.0","438100","p32p2a4fdbw","bigger","herson","accuracy test","no","<div style=""font-size:60px;"">+</div>","null","","","","","","",""
"","810","image-keyboard-response","418","2.0.0","438910","p32p2a4fdbw","bigger","herson","accuracy test","no","stimuli/34-Inongruent.jpg","m","","","","","right","m","true"
"","169","html-keyboard-response","419","2.0.0","439079","p32p2a4fdbw","bigger","herson","accuracy test","no","<p>Correct!</p>","m","","","","","","",""
"","null","html-keyboard-response","420","2.0.0","440081","p32p2a4fdbw","bigger","herson","accuracy test","no","<div style=""font-size:60px;"">+</div>","null","","","","","","",""
"","732","image-keyboard-response","421","2.0.0","440814","p32p2a4fdbw","bigger","herson","accuracy test","no","stimuli/23-Congruent.jpg","z","","","","","left","z","true"
"","182","html-keyboard-response","422","2.0.0","440996","p32p2a4fdbw","bigger","herson","accuracy test","no","<p>Correct!</p>","z","","","","","","",""
"","null","html-keyboard-response","423","2.0.0","441999","p32p2a4fdbw","bigger","herson","accuracy test","no","<div style=""font-size:60px;"">+</div>","null","","","","","","",""
"","739","image-keyboard-response","424","2.0.0","442738","p32p2a4fdbw","bigger","herson","accuracy test","no","stimuli/36-Congruent.jpg","z","","","","","left","z","true"
"","202","html-keyboard-response","425","2.0.0","442940","p32p2a4fdbw","bigger","herson","accuracy test","no","<p>Correct!</p>","z","","","","","","",""
"","null","html-keyboard-response","426","2.0.0","443947","p32p2a4fdbw","bigger","herson","accuracy test","no","<div style=""font-size:60px;"">+</div>","null","","","","","","",""
"","728","image-keyboard-response","427","2.0.0","444675","p32p2a4fdbw","bigger","herson","accuracy test","no","stimuli/17-Congruent.jpg","z","","","","","left","z","true"
"","176","html-keyboard-response","428","2.0.0","444851","p32p2a4fdbw","bigger","herson","accuracy test","no","<p>Correct!</p>","z","","","","","","",""
"","null","html-keyboard-response","429","2.0.0","445853","p32p2a4fdbw","bigger","herson","accuracy test","no","<div style=""font-size:60px;"">+</div>","null","","","","","","",""
"","490","image-keyboard-response","430","2.0.0","446343","p32p2a4fdbw","bigger","herson","accuracy test","no","stimuli/9-Congruent.jpg","z","","","","","left","z","true"
"","194","html-keyboard-response","431","2.0.0","446538","p32p2a4fdbw","bigger","herson","accuracy test","no","<p>Correct!</p>","z","","","","","","",""
"","null","html-keyboard-response","432","2.0.0","447552","p32p2a4fdbw","bigger","herson","accuracy test","no","<div style=""font-size:60px;"">+</div>","null","","","","","","",""
"","553","image-keyboard-response","433","2.0.0","448105","p32p2a4fdbw","bigger","herson","accuracy test","no","stimuli/31-Inongruent.jpg","m","","","","","right","m","true"
"","182","html-keyboard-response","434","2.0.0","448287","p32p2a4fdbw","bigger","herson","accuracy test","no","<p>Correct!</p>","m","","","","","","",""
"","null","html-keyboard-response","435","2.0.0","449300","p32p2a4fdbw","bigger","herson","accuracy test","no","<div style=""font-size:60px;"">+</div>","null","","","","","","",""
"","472","image-keyboard-response","436","2.0.0","449772","p32p2a4fdbw","bigger","herson","accuracy test","no","stimuli/6-Congruent.jpg","z","","","","","left","z","true"
"","189","html-keyboard-response","437","2.0.0","449961","p32p2a4fdbw","bigger","herson","accuracy test","no","<p>Correct!</p>","z","","","","","","",""
"","5036","html-keyboard-response","438","2.0.0","454998","p32p2a4fdbw","bigger","herson","accuracy test","no","<p>You have completed the experiment!</p>
              <p>Your accuracy was: 97.91666666666666%.</p>
              <p>Thank you for participating.</p>
              <p>Press any key to continue.</p>"," ","","","","","","",""
"","7822","survey-text","439","2.0.0","462822","p32p2a4fdbw","bigger","herson","accuracy test","no","","{""participant_thoughts"":""accuracy test""}","","","","","","",""
"","2611","survey-text","440","2.0.0","465435","p32p2a4fdbw","bigger","herson","accuracy test","no","","{""participant_difficulties"":""no""}","","","","","","",""
"","903","html-keyboard-response","441","2.0.0","466339","p32p2a4fdbw","bigger","herson","accuracy test","no","<p>The purpose of this experiment is to determine if the real world size of a familiar object is automatically processed when viewed.</p><p>Thank you for participating!</p>"," ","","","","","","",""
