"success","rt","trial_type","trial_index","plugin_version","time_elapsed","random_id","condition","participant","participant_thoughts","participant_difficulties","stimulus","response","timeout","failed_images","failed_audio","failed_video","correct_response","correct_response_key","correct"
"true","9653","fullscreen","0","null","10656","p3byua2l2w5","smaller","eagle","See if the size of an item in reality gets in the way when shown two images.","No.","","","","","","","","",""
"","1796","html-keyboard-response","1","2.0.0","12453","p3byua2l2w5","smaller","eagle","See if the size of an item in reality gets in the way when shown two images.","No.","Welcome to the Size Stroop experiment. Press any key to begin.","ArrowRight","","","","","","",""
"","null","html-keyboard-response","2","2.0.0","13456","p3byua2l2w5","smaller","eagle","See if the size of an item in reality gets in the way when shown two images.","No.","This trial will be in fullscreen mode.","null","","","","","","",""
"","5623","survey-text","3","2.0.0","19083","p3byua2l2w5","smaller","eagle","See if the size of an item in reality gets in the way when shown two images.","No.","","{""participant_id"":""eagle""}","","","","","","",""
"","8539","html-keyboard-response","4","2.0.0","27623","p3byua2l2w5","smaller","eagle","See if the size of an item in reality gets in the way when shown two images.","No.","<p>In this experiment, two images will appear on the screen. Identify the <strong>smaller</strong> image.</p>
              <p>If the image on the left is smaller, press ""z"". If the image on the right is smaller, press ""m"".</p>
              <p>Press any key to begin.</p>","ArrowRight","","","","","","",""
"true","","preload","5","2.0.0","28051","p3byua2l2w5","smaller","eagle","See if the size of an item in reality gets in the way when shown two images.","No.","","","false","[]","[]","[]","","",""
"","null","html-keyboard-response","6","2.0.0","29053","p3byua2l2w5","smaller","eagle","See if the size of an item in reality gets in the way when shown two images.","No.","<div style=""font-size:60px;"">+</div>","null","","","","","","",""
"","3184","image-keyboard-response","7","2.0.0","32241","p3byua2l2w5","smaller","eagle","See if the size of an item in reality gets in the way when shown two images.","No.","stimuli/34-Congruent.jpg","m","","","","","right","m","true"
"","null","html-keyboard-response","8","2.0.0","33145","p3byua2l2w5","smaller","eagle","See if the size of an item in reality gets in the way when shown two images.","No.","<p>Correct!</p>","null","","","","","","",""
"","null","html-keyboard-response","9","2.0.0","34148","p3byua2l2w5","smaller","eagle","See if the size of an item in reality gets in the way when shown two images.","No.","<div style=""font-size:60px;"">+</div>","null","","","","","","",""
"","1415","image-keyboard-response","10","2.0.0","35566","p3byua2l2w5","smaller","eagle","See if the size of an item in reality gets in the way when shown two images.","No.","stimuli/14-Congruent.jpg","m","","","","","right","m","true"
"","null","html-keyboard-response","11","2.0.0","36469","p3byua2l2w5","smaller","eagle","See if the size of an item in reality gets in the way when shown two images.","No.","<p>Correct!</p>","null","","","","","","",""
"","null","html-keyboard-response","12","2.0.0","37478","p3byua2l2w5","smaller","eagle","See if the size of an item in reality gets in the way when shown two images.","No.","<div style=""font-size:60px;"">+</div>","null","","","","","","",""
"","623","image-keyboard-response","13","2.0.0","38104","p3byua2l2w5","smaller","eagle","See if the size of an item in reality gets in the way when shown two images.","No.","stimuli/4-Inongruent.jpg","z","","","","","left","z","true"
"","null","html-keyboard-response","14","2.0.0","39006","p3byua2l2w5","smaller","eagle","See if the size of an item in reality gets in the way when shown two images.","No.","<p>Correct!</p>","null","","","","","","",""
"","null","html-keyboard-response","15","2.0.0","40008","p3byua2l2w5","smaller","eagle","See if the size of an item in reality gets in the way when shown two images.","No.","<div style=""font-size:60px;"">+</div>","null","","","","","","",""
"","582","image-keyboard-response","16","2.0.0","40591","p3byua2l2w5","smaller","eagle","See if the size of an item in reality gets in the way when shown two images.","No.","stimuli/10-Congruent.jpg","m","","","","","right","m","true"
"","null","html-keyboard-response","17","2.0.0","41494","p3byua2l2w5","smaller","eagle","See if the size of an item in reality gets in the way when shown two images.","No.","<p>Correct!</p>","null","","","","","","",""
"","null","html-keyboard-response","18","2.0.0","42496","p3byua2l2w5","smaller","eagle","See if the size of an item in reality gets in the way when shown two images.","No.","<div style=""font-size:60px;"">+</div>","null","","","","","","",""
"","596","image-keyboard-response","19","2.0.0","43095","p3byua2l2w5","smaller","eagle","See if the size of an item in reality gets in the way when shown two images.","No.","stimuli/33-Inongruent.jpg","z","","","","","left","z","true"
"","null","html-keyboard-response","20","2.0.0","43997","p3byua2l2w5","smaller","eagle","See if the size of an item in reality gets in the way when shown two images.","No.","<p>Correct!</p>","null","","","","","","",""
"","null","html-keyboard-response","21","2.0.0","45000","p3byua2l2w5","smaller","eagle","See if the size of an item in reality gets in the way when shown two images.","No.","<div style=""font-size:60px;"">+</div>","null","","","","","","",""
"","1194","image-keyboard-response","22","2.0.0","46194","p3byua2l2w5","smaller","eagle","See if the size of an item in reality gets in the way when shown two images.","No.","stimuli/25-Inongruent.jpg","z","","","","","left","z","true"
"","null","html-keyboard-response","23","2.0.0","47096","p3byua2l2w5","smaller","eagle","See if the size of an item in reality gets in the way when shown two images.","No.","<p>Correct!</p>","null","","","","","","",""
"","null","html-keyboard-response","24","2.0.0","48099","p3byua2l2w5","smaller","eagle","See if the size of an item in reality gets in the way when shown two images.","No.","<div style=""font-size:60px;"">+</div>","null","","","","","","",""
"","1256","image-keyboard-response","25","2.0.0","49357","p3byua2l2w5","smaller","eagle","See if the size of an item in reality gets in the way when shown two images.","No.","stimuli/8-Congruent.jpg","m","","","","","right","m","true"
"","null","html-keyboard-response","26","2.0.0","50260","p3byua2l2w5","smaller","eagle","See if the size of an item in reality gets in the way when shown two images.","No.","<p>Correct!</p>","null","","","","","","",""
"","null","html-keyboard-response","27","2.0.0","51264","p3byua2l2w5","smaller","eagle","See if the size of an item in reality gets in the way when shown two images.","No.","<div style=""font-size:60px;"">+</div>","null","","","","","","",""
"","568","image-keyboard-response","28","2.0.0","51835","p3byua2l2w5","smaller","eagle","See if the size of an item in reality gets in the way when shown two images.","No.","stimuli/20-Inongruent.jpg","z","","","","","left","z","true"
"","null","html-keyboard-response","29","2.0.0","52738","p3byua2l2w5","smaller","eagle","See if the size of an item in reality gets in the way when shown two images.","No.","<p>Correct!</p>","null","","","","","","",""
"","null","html-keyboard-response","30","2.0.0","53741","p3byua2l2w5","smaller","eagle","See if the size of an item in reality gets in the way when shown two images.","No.","<div style=""font-size:60px;"">+</div>","null","","","","","","",""
"","617","image-keyboard-response","31","2.0.0","54360","p3byua2l2w5","smaller","eagle","See if the size of an item in reality gets in the way when shown two images.","No.","stimuli/6-Inongruent.jpg","z","","","","","left","z","true"
"","null","html-keyboard-response","32","2.0.0","55262","p3byua2l2w5","smaller","eagle","See if the size of an item in reality gets in the way when shown two images.","No.","<p>Correct!</p>","null","","","","","","",""
"","null","html-keyboard-response","33","2.0.0","56265","p3byua2l2w5","smaller","eagle","See if the size of an item in reality gets in the way when shown two images.","No.","<div style=""font-size:60px;"">+</div>","null","","","","","","",""
"","893","image-keyboard-response","34","2.0.0","57162","p3byua2l2w5","smaller","eagle","See if the size of an item in reality gets in the way when shown two images.","No.","stimuli/33-Inongruent.jpg","z","","","","","left","z","true"
"","null","html-keyboard-response","35","2.0.0","58064","p3byua2l2w5","smaller","eagle","See if the size of an item in reality gets in the way when shown two images.","No.","<p>Correct!</p>","null","","","","","","",""
"","null","html-keyboard-response","36","2.0.0","59067","p3byua2l2w5","smaller","eagle","See if the size of an item in reality gets in the way when shown two images.","No.","<div style=""font-size:60px;"">+</div>","null","","","","","","",""
"","795","image-keyboard-response","37","2.0.0","59865","p3byua2l2w5","smaller","eagle","See if the size of an item in reality gets in the way when shown two images.","No.","stimuli/22-Inongruent.jpg","z","","","","","left","z","true"
"","null","html-keyboard-response","38","2.0.0","60767","p3byua2l2w5","smaller","eagle","See if the size of an item in reality gets in the way when shown two images.","No.","<p>Correct!</p>","null","","","","","","",""
"","null","html-keyboard-response","39","2.0.0","61770","p3byua2l2w5","smaller","eagle","See if the size of an item in reality gets in the way when shown two images.","No.","<div style=""font-size:60px;"">+</div>","null","","","","","","",""
"","752","image-keyboard-response","40","2.0.0","62524","p3byua2l2w5","smaller","eagle","See if the size of an item in reality gets in the way when shown two images.","No.","stimuli/3-Inongruent.jpg","z","","","","","left","z","true"
"","null","html-keyboard-response","41","2.0.0","63427","p3byua2l2w5","smaller","eagle","See if the size of an item in reality gets in the way when shown two images.","No.","<p>Correct!</p>","null","","","","","","",""
"","null","html-keyboard-response","42","2.0.0","64429","p3byua2l2w5","smaller","eagle","See if the size of an item in reality gets in the way when shown two images.","No.","<div style=""font-size:60px;"">+</div>","null","","","","","","",""
"","574","image-keyboard-response","43","2.0.0","65005","p3byua2l2w5","smaller","eagle","See if the size of an item in reality gets in the way when shown two images.","No.","stimuli/7-Congruent.jpg","m","","","","","right","m","true"
"","null","html-keyboard-response","44","2.0.0","65908","p3byua2l2w5","smaller","eagle","See if the size of an item in reality gets in the way when shown two images.","No.","<p>Correct!</p>","null","","","","","","",""
"","null","html-keyboard-response","45","2.0.0","66913","p3byua2l2w5","smaller","eagle","See if the size of an item in reality gets in the way when shown two images.","No.","<div style=""font-size:60px;"">+</div>","null","","","","","","",""
"","541","image-keyboard-response","46","2.0.0","67456","p3byua2l2w5","smaller","eagle","See if the size of an item in reality gets in the way when shown two images.","No.","stimuli/3-Congruent.jpg","m","","","","","right","m","true"
"","null","html-keyboard-response","47","2.0.0","68359","p3byua2l2w5","smaller","eagle","See if the size of an item in reality gets in the way when shown two images.","No.","<p>Correct!</p>","null","","","","","","",""
"","null","html-keyboard-response","48","2.0.0","69362","p3byua2l2w5","smaller","eagle","See if the size of an item in reality gets in the way when shown two images.","No.","<div style=""font-size:60px;"">+</div>","null","","","","","","",""
"","631","image-keyboard-response","49","2.0.0","69995","p3byua2l2w5","smaller","eagle","See if the size of an item in reality gets in the way when shown two images.","No.","stimuli/28-Congruent.jpg","m","","","","","right","m","true"
"","null","html-keyboard-response","50","2.0.0","70898","p3byua2l2w5","smaller","eagle","See if the size of an item in reality gets in the way when shown two images.","No.","<p>Correct!</p>","null","","","","","","",""
"","null","html-keyboard-response","51","2.0.0","71900","p3byua2l2w5","smaller","eagle","See if the size of an item in reality gets in the way when shown two images.","No.","<div style=""font-size:60px;"">+</div>","null","","","","","","",""
"","630","image-keyboard-response","52","2.0.0","72532","p3byua2l2w5","smaller","eagle","See if the size of an item in reality gets in the way when shown two images.","No.","stimuli/23-Inongruent.jpg","z","","","","","left","z","true"
"","null","html-keyboard-response","53","2.0.0","73435","p3byua2l2w5","smaller","eagle","See if the size of an item in reality gets in the way when shown two images.","No.","<p>Correct!</p>","null","","","","","","",""
"","null","html-keyboard-response","54","2.0.0","74437","p3byua2l2w5","smaller","eagle","See if the size of an item in reality gets in the way when shown two images.","No.","<div style=""font-size:60px;"">+</div>","null","","","","","","",""
"","516","image-keyboard-response","55","2.0.0","74955","p3byua2l2w5","smaller","eagle","See if the size of an item in reality gets in the way when shown two images.","No.","stimuli/18-Inongruent.jpg","z","","","","","left","z","true"
"","null","html-keyboard-response","56","2.0.0","75857","p3byua2l2w5","smaller","eagle","See if the size of an item in reality gets in the way when shown two images.","No.","<p>Correct!</p>","null","","","","","","",""
"","null","html-keyboard-response","57","2.0.0","76860","p3byua2l2w5","smaller","eagle","See if the size of an item in reality gets in the way when shown two images.","No.","<div style=""font-size:60px;"">+</div>","null","","","","","","",""
"","463","image-keyboard-response","58","2.0.0","77327","p3byua2l2w5","smaller","eagle","See if the size of an item in reality gets in the way when shown two images.","No.","stimuli/25-Congruent.jpg","m","","","","","right","m","true"
"","null","html-keyboard-response","59","2.0.0","78229","p3byua2l2w5","smaller","eagle","See if the size of an item in reality gets in the way when shown two images.","No.","<p>Correct!</p>","null","","","","","","",""
"","null","html-keyboard-response","60","2.0.0","79232","p3byua2l2w5","smaller","eagle","See if the size of an item in reality gets in the way when shown two images.","No.","<div style=""font-size:60px;"">+</div>","null","","","","","","",""
"","2204","image-keyboard-response","61","2.0.0","81437","p3byua2l2w5","smaller","eagle","See if the size of an item in reality gets in the way when shown two images.","No.","stimuli/19-Congruent.jpg","m","","","","","right","m","true"
"","null","html-keyboard-response","62","2.0.0","82340","p3byua2l2w5","smaller","eagle","See if the size of an item in reality gets in the way when shown two images.","No.","<p>Correct!</p>","null","","","","","","",""
"","null","html-keyboard-response","63","2.0.0","83343","p3byua2l2w5","smaller","eagle","See if the size of an item in reality gets in the way when shown two images.","No.","<div style=""font-size:60px;"">+</div>","null","","","","","","",""
"","1172","image-keyboard-response","64","2.0.0","84517","p3byua2l2w5","smaller","eagle","See if the size of an item in reality gets in the way when shown two images.","No.","stimuli/17-Congruent.jpg","m","","","","","right","m","true"
"","null","html-keyboard-response","65","2.0.0","85420","p3byua2l2w5","smaller","eagle","See if the size of an item in reality gets in the way when shown two images.","No.","<p>Correct!</p>","null","","","","","","",""
"","null","html-keyboard-response","66","2.0.0","86422","p3byua2l2w5","smaller","eagle","See if the size of an item in reality gets in the way when shown two images.","No.","<div style=""font-size:60px;"">+</div>","null","","","","","","",""
"","761","image-keyboard-response","67","2.0.0","87186","p3byua2l2w5","smaller","eagle","See if the size of an item in reality gets in the way when shown two images.","No.","stimuli/20-Congruent.jpg","m","","","","","right","m","true"
"","null","html-keyboard-response","68","2.0.0","88089","p3byua2l2w5","smaller","eagle","See if the size of an item in reality gets in the way when shown two images.","No.","<p>Correct!</p>","null","","","","","","",""
"","null","html-keyboard-response","69","2.0.0","89092","p3byua2l2w5","smaller","eagle","See if the size of an item in reality gets in the way when shown two images.","No.","<div style=""font-size:60px;"">+</div>","null","","","","","","",""
"","872","image-keyboard-response","70","2.0.0","89965","p3byua2l2w5","smaller","eagle","See if the size of an item in reality gets in the way when shown two images.","No.","stimuli/5-Congruent.jpg","m","","","","","right","m","true"
"","null","html-keyboard-response","71","2.0.0","90868","p3byua2l2w5","smaller","eagle","See if the size of an item in reality gets in the way when shown two images.","No.","<p>Correct!</p>","null","","","","","","",""
"","null","html-keyboard-response","72","2.0.0","91871","p3byua2l2w5","smaller","eagle","See if the size of an item in reality gets in the way when shown two images.","No.","<div style=""font-size:60px;"">+</div>","null","","","","","","",""
"","591","image-keyboard-response","73","2.0.0","92464","p3byua2l2w5","smaller","eagle","See if the size of an item in reality gets in the way when shown two images.","No.","stimuli/30-Inongruent.jpg","z","","","","","left","z","true"
"","null","html-keyboard-response","74","2.0.0","93366","p3byua2l2w5","smaller","eagle","See if the size of an item in reality gets in the way when shown two images.","No.","<p>Correct!</p>","null","","","","","","",""
"","null","html-keyboard-response","75","2.0.0","94370","p3byua2l2w5","smaller","eagle","See if the size of an item in reality gets in the way when shown two images.","No.","<div style=""font-size:60px;"">+</div>","null","","","","","","",""
"","666","image-keyboard-response","76","2.0.0","95037","p3byua2l2w5","smaller","eagle","See if the size of an item in reality gets in the way when shown two images.","No.","stimuli/12-Congruent.jpg","m","","","","","right","m","true"
"","null","html-keyboard-response","77","2.0.0","95940","p3byua2l2w5","smaller","eagle","See if the size of an item in reality gets in the way when shown two images.","No.","<p>Correct!</p>","null","","","","","","",""
"","null","html-keyboard-response","78","2.0.0","96941","p3byua2l2w5","smaller","eagle","See if the size of an item in reality gets in the way when shown two images.","No.","<div style=""font-size:60px;"">+</div>","null","","","","","","",""
"","511","image-keyboard-response","79","2.0.0","97454","p3byua2l2w5","smaller","eagle","See if the size of an item in reality gets in the way when shown two images.","No.","stimuli/24-Inongruent.jpg","z","","","","","left","z","true"
"","null","html-keyboard-response","80","2.0.0","98356","p3byua2l2w5","smaller","eagle","See if the size of an item in reality gets in the way when shown two images.","No.","<p>Correct!</p>","null","","","","","","",""
"","null","html-keyboard-response","81","2.0.0","99359","p3byua2l2w5","smaller","eagle","See if the size of an item in reality gets in the way when shown two images.","No.","<div style=""font-size:60px;"">+</div>","null","","","","","","",""
"","567","image-keyboard-response","82","2.0.0","99928","p3byua2l2w5","smaller","eagle","See if the size of an item in reality gets in the way when shown two images.","No.","stimuli/24-Congruent.jpg","m","","","","","right","m","true"
"","null","html-keyboard-response","83","2.0.0","100831","p3byua2l2w5","smaller","eagle","See if the size of an item in reality gets in the way when shown two images.","No.","<p>Correct!</p>","null","","","","","","",""
"","null","html-keyboard-response","84","2.0.0","101833","p3byua2l2w5","smaller","eagle","See if the size of an item in reality gets in the way when shown two images.","No.","<div style=""font-size:60px;"">+</div>","null","","","","","","",""
"","922","image-keyboard-response","85","2.0.0","102757","p3byua2l2w5","smaller","eagle","See if the size of an item in reality gets in the way when shown two images.","No.","stimuli/19-Congruent.jpg","m","","","","","right","m","true"
"","null","html-keyboard-response","86","2.0.0","103659","p3byua2l2w5","smaller","eagle","See if the size of an item in reality gets in the way when shown two images.","No.","<p>Correct!</p>","null","","","","","","",""
"","null","html-keyboard-response","87","2.0.0","104660","p3byua2l2w5","smaller","eagle","See if the size of an item in reality gets in the way when shown two images.","No.","<div style=""font-size:60px;"">+</div>","null","","","","","","",""
"","594","image-keyboard-response","88","2.0.0","105255","p3byua2l2w5","smaller","eagle","See if the size of an item in reality gets in the way when shown two images.","No.","stimuli/28-Congruent.jpg","m","","","","","right","m","true"
"","null","html-keyboard-response","89","2.0.0","106158","p3byua2l2w5","smaller","eagle","See if the size of an item in reality gets in the way when shown two images.","No.","<p>Correct!</p>","null","","","","","","",""
"","null","html-keyboard-response","90","2.0.0","107161","p3byua2l2w5","smaller","eagle","See if the size of an item in reality gets in the way when shown two images.","No.","<div style=""font-size:60px;"">+</div>","null","","","","","","",""
"","546","image-keyboard-response","91","2.0.0","107708","p3byua2l2w5","smaller","eagle","See if the size of an item in reality gets in the way when shown two images.","No.","stimuli/21-Congruent.jpg","m","","","","","right","m","true"
"","null","html-keyboard-response","92","2.0.0","108611","p3byua2l2w5","smaller","eagle","See if the size of an item in reality gets in the way when shown two images.","No.","<p>Correct!</p>","null","","","","","","",""
"","null","html-keyboard-response","93","2.0.0","109613","p3byua2l2w5","smaller","eagle","See if the size of an item in reality gets in the way when shown two images.","No.","<div style=""font-size:60px;"">+</div>","null","","","","","","",""
"","886","image-keyboard-response","94","2.0.0","110501","p3byua2l2w5","smaller","eagle","See if the size of an item in reality gets in the way when shown two images.","No.","stimuli/29-Congruent.jpg","m","","","","","right","m","true"
"","null","html-keyboard-response","95","2.0.0","111404","p3byua2l2w5","smaller","eagle","See if the size of an item in reality gets in the way when shown two images.","No.","<p>Correct!</p>","null","","","","","","",""
"","null","html-keyboard-response","96","2.0.0","112406","p3byua2l2w5","smaller","eagle","See if the size of an item in reality gets in the way when shown two images.","No.","<div style=""font-size:60px;"">+</div>","null","","","","","","",""
"","1309","image-keyboard-response","97","2.0.0","113716","p3byua2l2w5","smaller","eagle","See if the size of an item in reality gets in the way when shown two images.","No.","stimuli/15-Congruent.jpg","m","","","","","right","m","true"
"","null","html-keyboard-response","98","2.0.0","114619","p3byua2l2w5","smaller","eagle","See if the size of an item in reality gets in the way when shown two images.","No.","<p>Correct!</p>","null","","","","","","",""
"","null","html-keyboard-response","99","2.0.0","115622","p3byua2l2w5","smaller","eagle","See if the size of an item in reality gets in the way when shown two images.","No.","<div style=""font-size:60px;"">+</div>","null","","","","","","",""
"","544","image-keyboard-response","100","2.0.0","116168","p3byua2l2w5","smaller","eagle","See if the size of an item in reality gets in the way when shown two images.","No.","stimuli/35-Inongruent.jpg","z","","","","","left","z","true"
"","null","html-keyboard-response","101","2.0.0","117070","p3byua2l2w5","smaller","eagle","See if the size of an item in reality gets in the way when shown two images.","No.","<p>Correct!</p>","null","","","","","","",""
"","null","html-keyboard-response","102","2.0.0","118073","p3byua2l2w5","smaller","eagle","See if the size of an item in reality gets in the way when shown two images.","No.","<div style=""font-size:60px;"">+</div>","null","","","","","","",""
"","563","image-keyboard-response","103","2.0.0","118638","p3byua2l2w5","smaller","eagle","See if the size of an item in reality gets in the way when shown two images.","No.","stimuli/13-Congruent.jpg","m","","","","","right","m","true"
"","null","html-keyboard-response","104","2.0.0","119541","p3byua2l2w5","smaller","eagle","See if the size of an item in reality gets in the way when shown two images.","No.","<p>Correct!</p>","null","","","","","","",""
"","null","html-keyboard-response","105","2.0.0","120543","p3byua2l2w5","smaller","eagle","See if the size of an item in reality gets in the way when shown two images.","No.","<div style=""font-size:60px;"">+</div>","null","","","","","","",""
"","501","image-keyboard-response","106","2.0.0","121047","p3byua2l2w5","smaller","eagle","See if the size of an item in reality gets in the way when shown two images.","No.","stimuli/21-Inongruent.jpg","z","","","","","left","z","true"
"","null","html-keyboard-response","107","2.0.0","121949","p3byua2l2w5","smaller","eagle","See if the size of an item in reality gets in the way when shown two images.","No.","<p>Correct!</p>","null","","","","","","",""
"","null","html-keyboard-response","108","2.0.0","122951","p3byua2l2w5","smaller","eagle","See if the size of an item in reality gets in the way when shown two images.","No.","<div style=""font-size:60px;"">+</div>","null","","","","","","",""
"","606","image-keyboard-response","109","2.0.0","123558","p3byua2l2w5","smaller","eagle","See if the size of an item in reality gets in the way when shown two images.","No.","stimuli/12-Inongruent.jpg","z","","","","","left","z","true"
"","null","html-keyboard-response","110","2.0.0","124460","p3byua2l2w5","smaller","eagle","See if the size of an item in reality gets in the way when shown two images.","No.","<p>Correct!</p>","null","","","","","","",""
"","null","html-keyboard-response","111","2.0.0","125468","p3byua2l2w5","smaller","eagle","See if the size of an item in reality gets in the way when shown two images.","No.","<div style=""font-size:60px;"">+</div>","null","","","","","","",""
"","687","image-keyboard-response","112","2.0.0","126158","p3byua2l2w5","smaller","eagle","See if the size of an item in reality gets in the way when shown two images.","No.","stimuli/35-Congruent.jpg","m","","","","","right","m","true"
"","null","html-keyboard-response","113","2.0.0","127060","p3byua2l2w5","smaller","eagle","See if the size of an item in reality gets in the way when shown two images.","No.","<p>Correct!</p>","null","","","","","","",""
"","null","html-keyboard-response","114","2.0.0","128063","p3byua2l2w5","smaller","eagle","See if the size of an item in reality gets in the way when shown two images.","No.","<div style=""font-size:60px;"">+</div>","null","","","","","","",""
"","689","image-keyboard-response","115","2.0.0","128754","p3byua2l2w5","smaller","eagle","See if the size of an item in reality gets in the way when shown two images.","No.","stimuli/11-Congruent.jpg","m","","","","","right","m","true"
"","null","html-keyboard-response","116","2.0.0","129656","p3byua2l2w5","smaller","eagle","See if the size of an item in reality gets in the way when shown two images.","No.","<p>Correct!</p>","null","","","","","","",""
"","null","html-keyboard-response","117","2.0.0","130657","p3byua2l2w5","smaller","eagle","See if the size of an item in reality gets in the way when shown two images.","No.","<div style=""font-size:60px;"">+</div>","null","","","","","","",""
"","490","image-keyboard-response","118","2.0.0","131149","p3byua2l2w5","smaller","eagle","See if the size of an item in reality gets in the way when shown two images.","No.","stimuli/25-Inongruent.jpg","z","","","","","left","z","true"
"","null","html-keyboard-response","119","2.0.0","132051","p3byua2l2w5","smaller","eagle","See if the size of an item in reality gets in the way when shown two images.","No.","<p>Correct!</p>","null","","","","","","",""
"","null","html-keyboard-response","120","2.0.0","133054","p3byua2l2w5","smaller","eagle","See if the size of an item in reality gets in the way when shown two images.","No.","<div style=""font-size:60px;"">+</div>","null","","","","","","",""
"","606","image-keyboard-response","121","2.0.0","133662","p3byua2l2w5","smaller","eagle","See if the size of an item in reality gets in the way when shown two images.","No.","stimuli/20-Congruent.jpg","m","","","","","right","m","true"
"","null","html-keyboard-response","122","2.0.0","134565","p3byua2l2w5","smaller","eagle","See if the size of an item in reality gets in the way when shown two images.","No.","<p>Correct!</p>","null","","","","","","",""
"","null","html-keyboard-response","123","2.0.0","135568","p3byua2l2w5","smaller","eagle","See if the size of an item in reality gets in the way when shown two images.","No.","<div style=""font-size:60px;"">+</div>","null","","","","","","",""
"","576","image-keyboard-response","124","2.0.0","136146","p3byua2l2w5","smaller","eagle","See if the size of an item in reality gets in the way when shown two images.","No.","stimuli/26-Inongruent.jpg","z","","","","","left","z","true"
"","null","html-keyboard-response","125","2.0.0","137049","p3byua2l2w5","smaller","eagle","See if the size of an item in reality gets in the way when shown two images.","No.","<p>Correct!</p>","null","","","","","","",""
"","null","html-keyboard-response","126","2.0.0","138052","p3byua2l2w5","smaller","eagle","See if the size of an item in reality gets in the way when shown two images.","No.","<div style=""font-size:60px;"">+</div>","null","","","","","","",""
"","609","image-keyboard-response","127","2.0.0","138662","p3byua2l2w5","smaller","eagle","See if the size of an item in reality gets in the way when shown two images.","No.","stimuli/8-Inongruent.jpg","z","","","","","left","z","true"
"","null","html-keyboard-response","128","2.0.0","139565","p3byua2l2w5","smaller","eagle","See if the size of an item in reality gets in the way when shown two images.","No.","<p>Correct!</p>","null","","","","","","",""
"","null","html-keyboard-response","129","2.0.0","140568","p3byua2l2w5","smaller","eagle","See if the size of an item in reality gets in the way when shown two images.","No.","<div style=""font-size:60px;"">+</div>","null","","","","","","",""
"","595","image-keyboard-response","130","2.0.0","141167","p3byua2l2w5","smaller","eagle","See if the size of an item in reality gets in the way when shown two images.","No.","stimuli/18-Congruent.jpg","m","","","","","right","m","true"
"","null","html-keyboard-response","131","2.0.0","142069","p3byua2l2w5","smaller","eagle","See if the size of an item in reality gets in the way when shown two images.","No.","<p>Correct!</p>","null","","","","","","",""
"","null","html-keyboard-response","132","2.0.0","143073","p3byua2l2w5","smaller","eagle","See if the size of an item in reality gets in the way when shown two images.","No.","<div style=""font-size:60px;"">+</div>","null","","","","","","",""
"","575","image-keyboard-response","133","2.0.0","143650","p3byua2l2w5","smaller","eagle","See if the size of an item in reality gets in the way when shown two images.","No.","stimuli/27-Congruent.jpg","m","","","","","right","m","true"
"","null","html-keyboard-response","134","2.0.0","144553","p3byua2l2w5","smaller","eagle","See if the size of an item in reality gets in the way when shown two images.","No.","<p>Correct!</p>","null","","","","","","",""
"","null","html-keyboard-response","135","2.0.0","145556","p3byua2l2w5","smaller","eagle","See if the size of an item in reality gets in the way when shown two images.","No.","<div style=""font-size:60px;"">+</div>","null","","","","","","",""
"","425","image-keyboard-response","136","2.0.0","145983","p3byua2l2w5","smaller","eagle","See if the size of an item in reality gets in the way when shown two images.","No.","stimuli/9-Inongruent.jpg","z","","","","","left","z","true"
"","null","html-keyboard-response","137","2.0.0","146885","p3byua2l2w5","smaller","eagle","See if the size of an item in reality gets in the way when shown two images.","No.","<p>Correct!</p>","null","","","","","","",""
"","null","html-keyboard-response","138","2.0.0","147888","p3byua2l2w5","smaller","eagle","See if the size of an item in reality gets in the way when shown two images.","No.","<div style=""font-size:60px;"">+</div>","null","","","","","","",""
"","478","image-keyboard-response","139","2.0.0","148368","p3byua2l2w5","smaller","eagle","See if the size of an item in reality gets in the way when shown two images.","No.","stimuli/11-Congruent.jpg","m","","","","","right","m","true"
"","null","html-keyboard-response","140","2.0.0","149270","p3byua2l2w5","smaller","eagle","See if the size of an item in reality gets in the way when shown two images.","No.","<p>Correct!</p>","null","","","","","","",""
"","null","html-keyboard-response","141","2.0.0","150273","p3byua2l2w5","smaller","eagle","See if the size of an item in reality gets in the way when shown two images.","No.","<div style=""font-size:60px;"">+</div>","null","","","","","","",""
"","433","image-keyboard-response","142","2.0.0","150707","p3byua2l2w5","smaller","eagle","See if the size of an item in reality gets in the way when shown two images.","No.","stimuli/7-Congruent.jpg","m","","","","","right","m","true"
"","null","html-keyboard-response","143","2.0.0","151609","p3byua2l2w5","smaller","eagle","See if the size of an item in reality gets in the way when shown two images.","No.","<p>Correct!</p>","null","","","","","","",""
"","null","html-keyboard-response","144","2.0.0","152612","p3byua2l2w5","smaller","eagle","See if the size of an item in reality gets in the way when shown two images.","No.","<div style=""font-size:60px;"">+</div>","null","","","","","","",""
"","506","image-keyboard-response","145","2.0.0","153120","p3byua2l2w5","smaller","eagle","See if the size of an item in reality gets in the way when shown two images.","No.","stimuli/2-Congruent.jpg","m","","","","","right","m","true"
"","null","html-keyboard-response","146","2.0.0","154022","p3byua2l2w5","smaller","eagle","See if the size of an item in reality gets in the way when shown two images.","No.","<p>Correct!</p>","null","","","","","","",""
"","null","html-keyboard-response","147","2.0.0","155025","p3byua2l2w5","smaller","eagle","See if the size of an item in reality gets in the way when shown two images.","No.","<div style=""font-size:60px;"">+</div>","null","","","","","","",""
"","686","image-keyboard-response","148","2.0.0","155714","p3byua2l2w5","smaller","eagle","See if the size of an item in reality gets in the way when shown two images.","No.","stimuli/16-Congruent.jpg","m","","","","","right","m","true"
"","null","html-keyboard-response","149","2.0.0","156616","p3byua2l2w5","smaller","eagle","See if the size of an item in reality gets in the way when shown two images.","No.","<p>Correct!</p>","null","","","","","","",""
"","null","html-keyboard-response","150","2.0.0","157619","p3byua2l2w5","smaller","eagle","See if the size of an item in reality gets in the way when shown two images.","No.","<div style=""font-size:60px;"">+</div>","null","","","","","","",""
"","537","image-keyboard-response","151","2.0.0","158158","p3byua2l2w5","smaller","eagle","See if the size of an item in reality gets in the way when shown two images.","No.","stimuli/4-Congruent.jpg","m","","","","","right","m","true"
"","null","html-keyboard-response","152","2.0.0","159060","p3byua2l2w5","smaller","eagle","See if the size of an item in reality gets in the way when shown two images.","No.","<p>Correct!</p>","null","","","","","","",""
"","null","html-keyboard-response","153","2.0.0","160063","p3byua2l2w5","smaller","eagle","See if the size of an item in reality gets in the way when shown two images.","No.","<div style=""font-size:60px;"">+</div>","null","","","","","","",""
"","399","image-keyboard-response","154","2.0.0","160464","p3byua2l2w5","smaller","eagle","See if the size of an item in reality gets in the way when shown two images.","No.","stimuli/6-Inongruent.jpg","z","","","","","left","z","true"
"","null","html-keyboard-response","155","2.0.0","161367","p3byua2l2w5","smaller","eagle","See if the size of an item in reality gets in the way when shown two images.","No.","<p>Correct!</p>","null","","","","","","",""
"","null","html-keyboard-response","156","2.0.0","162369","p3byua2l2w5","smaller","eagle","See if the size of an item in reality gets in the way when shown two images.","No.","<div style=""font-size:60px;"">+</div>","null","","","","","","",""
"","462","image-keyboard-response","157","2.0.0","162833","p3byua2l2w5","smaller","eagle","See if the size of an item in reality gets in the way when shown two images.","No.","stimuli/5-Inongruent.jpg","z","","","","","left","z","true"
"","null","html-keyboard-response","158","2.0.0","163736","p3byua2l2w5","smaller","eagle","See if the size of an item in reality gets in the way when shown two images.","No.","<p>Correct!</p>","null","","","","","","",""
"","null","html-keyboard-response","159","2.0.0","164739","p3byua2l2w5","smaller","eagle","See if the size of an item in reality gets in the way when shown two images.","No.","<div style=""font-size:60px;"">+</div>","null","","","","","","",""
"","441","image-keyboard-response","160","2.0.0","165181","p3byua2l2w5","smaller","eagle","See if the size of an item in reality gets in the way when shown two images.","No.","stimuli/24-Congruent.jpg","m","","","","","right","m","true"
"","null","html-keyboard-response","161","2.0.0","166084","p3byua2l2w5","smaller","eagle","See if the size of an item in reality gets in the way when shown two images.","No.","<p>Correct!</p>","null","","","","","","",""
"","null","html-keyboard-response","162","2.0.0","167087","p3byua2l2w5","smaller","eagle","See if the size of an item in reality gets in the way when shown two images.","No.","<div style=""font-size:60px;"">+</div>","null","","","","","","",""
"","569","image-keyboard-response","163","2.0.0","167657","p3byua2l2w5","smaller","eagle","See if the size of an item in reality gets in the way when shown two images.","No.","stimuli/27-Congruent.jpg","m","","","","","right","m","true"
"","null","html-keyboard-response","164","2.0.0","168560","p3byua2l2w5","smaller","eagle","See if the size of an item in reality gets in the way when shown two images.","No.","<p>Correct!</p>","null","","","","","","",""
"","null","html-keyboard-response","165","2.0.0","169562","p3byua2l2w5","smaller","eagle","See if the size of an item in reality gets in the way when shown two images.","No.","<div style=""font-size:60px;"">+</div>","null","","","","","","",""
"","486","image-keyboard-response","166","2.0.0","170051","p3byua2l2w5","smaller","eagle","See if the size of an item in reality gets in the way when shown two images.","No.","stimuli/16-Inongruent.jpg","z","","","","","left","z","true"
"","null","html-keyboard-response","167","2.0.0","170954","p3byua2l2w5","smaller","eagle","See if the size of an item in reality gets in the way when shown two images.","No.","<p>Correct!</p>","null","","","","","","",""
"","null","html-keyboard-response","168","2.0.0","171957","p3byua2l2w5","smaller","eagle","See if the size of an item in reality gets in the way when shown two images.","No.","<div style=""font-size:60px;"">+</div>","null","","","","","","",""
"","625","image-keyboard-response","169","2.0.0","172584","p3byua2l2w5","smaller","eagle","See if the size of an item in reality gets in the way when shown two images.","No.","stimuli/36-Congruent.jpg","m","","","","","right","m","true"
"","null","html-keyboard-response","170","2.0.0","173487","p3byua2l2w5","smaller","eagle","See if the size of an item in reality gets in the way when shown two images.","No.","<p>Correct!</p>","null","","","","","","",""
"","null","html-keyboard-response","171","2.0.0","174490","p3byua2l2w5","smaller","eagle","See if the size of an item in reality gets in the way when shown two images.","No.","<div style=""font-size:60px;"">+</div>","null","","","","","","",""
"","466","image-keyboard-response","172","2.0.0","174958","p3byua2l2w5","smaller","eagle","See if the size of an item in reality gets in the way when shown two images.","No.","stimuli/10-Inongruent.jpg","z","","","","","left","z","true"
"","null","html-keyboard-response","173","2.0.0","175861","p3byua2l2w5","smaller","eagle","See if the size of an item in reality gets in the way when shown two images.","No.","<p>Correct!</p>","null","","","","","","",""
"","null","html-keyboard-response","174","2.0.0","176863","p3byua2l2w5","smaller","eagle","See if the size of an item in reality gets in the way when shown two images.","No.","<div style=""font-size:60px;"">+</div>","null","","","","","","",""
"","452","image-keyboard-response","175","2.0.0","177316","p3byua2l2w5","smaller","eagle","See if the size of an item in reality gets in the way when shown two images.","No.","stimuli/2-Inongruent.jpg","z","","","","","left","z","true"
"","null","html-keyboard-response","176","2.0.0","178219","p3byua2l2w5","smaller","eagle","See if the size of an item in reality gets in the way when shown two images.","No.","<p>Correct!</p>","null","","","","","","",""
"","null","html-keyboard-response","177","2.0.0","179222","p3byua2l2w5","smaller","eagle","See if the size of an item in reality gets in the way when shown two images.","No.","<div style=""font-size:60px;"">+</div>","null","","","","","","",""
"","549","image-keyboard-response","178","2.0.0","179774","p3byua2l2w5","smaller","eagle","See if the size of an item in reality gets in the way when shown two images.","No.","stimuli/31-Congruent.jpg","m","","","","","right","m","true"
"","null","html-keyboard-response","179","2.0.0","180676","p3byua2l2w5","smaller","eagle","See if the size of an item in reality gets in the way when shown two images.","No.","<p>Correct!</p>","null","","","","","","",""
"","null","html-keyboard-response","180","2.0.0","181678","p3byua2l2w5","smaller","eagle","See if the size of an item in reality gets in the way when shown two images.","No.","<div style=""font-size:60px;"">+</div>","null","","","","","","",""
"","481","image-keyboard-response","181","2.0.0","182162","p3byua2l2w5","smaller","eagle","See if the size of an item in reality gets in the way when shown two images.","No.","stimuli/29-Inongruent.jpg","z","","","","","left","z","true"
"","null","html-keyboard-response","182","2.0.0","183064","p3byua2l2w5","smaller","eagle","See if the size of an item in reality gets in the way when shown two images.","No.","<p>Correct!</p>","null","","","","","","",""
"","null","html-keyboard-response","183","2.0.0","184067","p3byua2l2w5","smaller","eagle","See if the size of an item in reality gets in the way when shown two images.","No.","<div style=""font-size:60px;"">+</div>","null","","","","","","",""
"","444","image-keyboard-response","184","2.0.0","184514","p3byua2l2w5","smaller","eagle","See if the size of an item in reality gets in the way when shown two images.","No.","stimuli/15-Inongruent.jpg","z","","","","","left","z","true"
"","null","html-keyboard-response","185","2.0.0","185423","p3byua2l2w5","smaller","eagle","See if the size of an item in reality gets in the way when shown two images.","No.","<p>Correct!</p>","null","","","","","","",""
"","null","html-keyboard-response","186","2.0.0","186425","p3byua2l2w5","smaller","eagle","See if the size of an item in reality gets in the way when shown two images.","No.","<div style=""font-size:60px;"">+</div>","null","","","","","","",""
"","614","image-keyboard-response","187","2.0.0","187042","p3byua2l2w5","smaller","eagle","See if the size of an item in reality gets in the way when shown two images.","No.","stimuli/25-Congruent.jpg","m","","","","","right","m","true"
"","null","html-keyboard-response","188","2.0.0","187945","p3byua2l2w5","smaller","eagle","See if the size of an item in reality gets in the way when shown two images.","No.","<p>Correct!</p>","null","","","","","","",""
"","null","html-keyboard-response","189","2.0.0","188947","p3byua2l2w5","smaller","eagle","See if the size of an item in reality gets in the way when shown two images.","No.","<div style=""font-size:60px;"">+</div>","null","","","","","","",""
"","422","image-keyboard-response","190","2.0.0","189371","p3byua2l2w5","smaller","eagle","See if the size of an item in reality gets in the way when shown two images.","No.","stimuli/15-Inongruent.jpg","z","","","","","left","z","true"
"","null","html-keyboard-response","191","2.0.0","190274","p3byua2l2w5","smaller","eagle","See if the size of an item in reality gets in the way when shown two images.","No.","<p>Correct!</p>","null","","","","","","",""
"","null","html-keyboard-response","192","2.0.0","191277","p3byua2l2w5","smaller","eagle","See if the size of an item in reality gets in the way when shown two images.","No.","<div style=""font-size:60px;"">+</div>","null","","","","","","",""
"","435","image-keyboard-response","193","2.0.0","191714","p3byua2l2w5","smaller","eagle","See if the size of an item in reality gets in the way when shown two images.","No.","stimuli/32-Inongruent.jpg","z","","","","","left","z","true"
"","null","html-keyboard-response","194","2.0.0","192617","p3byua2l2w5","smaller","eagle","See if the size of an item in reality gets in the way when shown two images.","No.","<p>Correct!</p>","null","","","","","","",""
"","null","html-keyboard-response","195","2.0.0","193620","p3byua2l2w5","smaller","eagle","See if the size of an item in reality gets in the way when shown two images.","No.","<div style=""font-size:60px;"">+</div>","null","","","","","","",""
"","459","image-keyboard-response","196","2.0.0","194082","p3byua2l2w5","smaller","eagle","See if the size of an item in reality gets in the way when shown two images.","No.","stimuli/22-Inongruent.jpg","z","","","","","left","z","true"
"","null","html-keyboard-response","197","2.0.0","194984","p3byua2l2w5","smaller","eagle","See if the size of an item in reality gets in the way when shown two images.","No.","<p>Correct!</p>","null","","","","","","",""
"","null","html-keyboard-response","198","2.0.0","195987","p3byua2l2w5","smaller","eagle","See if the size of an item in reality gets in the way when shown two images.","No.","<div style=""font-size:60px;"">+</div>","null","","","","","","",""
"","479","image-keyboard-response","199","2.0.0","196468","p3byua2l2w5","smaller","eagle","See if the size of an item in reality gets in the way when shown two images.","No.","stimuli/4-Inongruent.jpg","z","","","","","left","z","true"
"","null","html-keyboard-response","200","2.0.0","197370","p3byua2l2w5","smaller","eagle","See if the size of an item in reality gets in the way when shown two images.","No.","<p>Correct!</p>","null","","","","","","",""
"","null","html-keyboard-response","201","2.0.0","198373","p3byua2l2w5","smaller","eagle","See if the size of an item in reality gets in the way when shown two images.","No.","<div style=""font-size:60px;"">+</div>","null","","","","","","",""
"","448","image-keyboard-response","202","2.0.0","198825","p3byua2l2w5","smaller","eagle","See if the size of an item in reality gets in the way when shown two images.","No.","stimuli/11-Inongruent.jpg","z","","","","","left","z","true"
"","null","html-keyboard-response","203","2.0.0","199728","p3byua2l2w5","smaller","eagle","See if the size of an item in reality gets in the way when shown two images.","No.","<p>Correct!</p>","null","","","","","","",""
"","null","html-keyboard-response","204","2.0.0","200731","p3byua2l2w5","smaller","eagle","See if the size of an item in reality gets in the way when shown two images.","No.","<div style=""font-size:60px;"">+</div>","null","","","","","","",""
"","565","image-keyboard-response","205","2.0.0","201298","p3byua2l2w5","smaller","eagle","See if the size of an item in reality gets in the way when shown two images.","No.","stimuli/1-Congruent.jpg","m","","","","","right","m","true"
"","null","html-keyboard-response","206","2.0.0","202200","p3byua2l2w5","smaller","eagle","See if the size of an item in reality gets in the way when shown two images.","No.","<p>Correct!</p>","null","","","","","","",""
"","null","html-keyboard-response","207","2.0.0","203203","p3byua2l2w5","smaller","eagle","See if the size of an item in reality gets in the way when shown two images.","No.","<div style=""font-size:60px;"">+</div>","null","","","","","","",""
"","469","image-keyboard-response","208","2.0.0","203674","p3byua2l2w5","smaller","eagle","See if the size of an item in reality gets in the way when shown two images.","No.","stimuli/17-Inongruent.jpg","z","","","","","left","z","true"
"","null","html-keyboard-response","209","2.0.0","204577","p3byua2l2w5","smaller","eagle","See if the size of an item in reality gets in the way when shown two images.","No.","<p>Correct!</p>","null","","","","","","",""
"","null","html-keyboard-response","210","2.0.0","205580","p3byua2l2w5","smaller","eagle","See if the size of an item in reality gets in the way when shown two images.","No.","<div style=""font-size:60px;"">+</div>","null","","","","","","",""
"","542","image-keyboard-response","211","2.0.0","206124","p3byua2l2w5","smaller","eagle","See if the size of an item in reality gets in the way when shown two images.","No.","stimuli/10-Inongruent.jpg","z","","","","","left","z","true"
"","null","html-keyboard-response","212","2.0.0","207026","p3byua2l2w5","smaller","eagle","See if the size of an item in reality gets in the way when shown two images.","No.","<p>Correct!</p>","null","","","","","","",""
"","null","html-keyboard-response","213","2.0.0","208029","p3byua2l2w5","smaller","eagle","See if the size of an item in reality gets in the way when shown two images.","No.","<div style=""font-size:60px;"">+</div>","null","","","","","","",""
"","519","image-keyboard-response","214","2.0.0","208551","p3byua2l2w5","smaller","eagle","See if the size of an item in reality gets in the way when shown two images.","No.","stimuli/10-Congruent.jpg","m","","","","","right","m","true"
"","null","html-keyboard-response","215","2.0.0","209453","p3byua2l2w5","smaller","eagle","See if the size of an item in reality gets in the way when shown two images.","No.","<p>Correct!</p>","null","","","","","","",""
"","null","html-keyboard-response","216","2.0.0","210456","p3byua2l2w5","smaller","eagle","See if the size of an item in reality gets in the way when shown two images.","No.","<div style=""font-size:60px;"">+</div>","null","","","","","","",""
"","438","image-keyboard-response","217","2.0.0","210896","p3byua2l2w5","smaller","eagle","See if the size of an item in reality gets in the way when shown two images.","No.","stimuli/32-Inongruent.jpg","z","","","","","left","z","true"
"","null","html-keyboard-response","218","2.0.0","211798","p3byua2l2w5","smaller","eagle","See if the size of an item in reality gets in the way when shown two images.","No.","<p>Correct!</p>","null","","","","","","",""
"","null","html-keyboard-response","219","2.0.0","212801","p3byua2l2w5","smaller","eagle","See if the size of an item in reality gets in the way when shown two images.","No.","<div style=""font-size:60px;"">+</div>","null","","","","","","",""
"","411","image-keyboard-response","220","2.0.0","213213","p3byua2l2w5","smaller","eagle","See if the size of an item in reality gets in the way when shown two images.","No.","stimuli/1-Congruent.jpg","m","","","","","right","m","true"
"","null","html-keyboard-response","221","2.0.0","214116","p3byua2l2w5","smaller","eagle","See if the size of an item in reality gets in the way when shown two images.","No.","<p>Correct!</p>","null","","","","","","",""
"","null","html-keyboard-response","222","2.0.0","215118","p3byua2l2w5","smaller","eagle","See if the size of an item in reality gets in the way when shown two images.","No.","<div style=""font-size:60px;"">+</div>","null","","","","","","",""
"","529","image-keyboard-response","223","2.0.0","215649","p3byua2l2w5","smaller","eagle","See if the size of an item in reality gets in the way when shown two images.","No.","stimuli/32-Congruent.jpg","m","","","","","right","m","true"
"","null","html-keyboard-response","224","2.0.0","216551","p3byua2l2w5","smaller","eagle","See if the size of an item in reality gets in the way when shown two images.","No.","<p>Correct!</p>","null","","","","","","",""
"","null","html-keyboard-response","225","2.0.0","217554","p3byua2l2w5","smaller","eagle","See if the size of an item in reality gets in the way when shown two images.","No.","<div style=""font-size:60px;"">+</div>","null","","","","","","",""
"","398","image-keyboard-response","226","2.0.0","217954","p3byua2l2w5","smaller","eagle","See if the size of an item in reality gets in the way when shown two images.","No.","stimuli/21-Congruent.jpg","m","","","","","right","m","true"
"","null","html-keyboard-response","227","2.0.0","218857","p3byua2l2w5","smaller","eagle","See if the size of an item in reality gets in the way when shown two images.","No.","<p>Correct!</p>","null","","","","","","",""
"","null","html-keyboard-response","228","2.0.0","219860","p3byua2l2w5","smaller","eagle","See if the size of an item in reality gets in the way when shown two images.","No.","<div style=""font-size:60px;"">+</div>","null","","","","","","",""
"","583","image-keyboard-response","229","2.0.0","220446","p3byua2l2w5","smaller","eagle","See if the size of an item in reality gets in the way when shown two images.","No.","stimuli/34-Congruent.jpg","m","","","","","right","m","true"
"","null","html-keyboard-response","230","2.0.0","221348","p3byua2l2w5","smaller","eagle","See if the size of an item in reality gets in the way when shown two images.","No.","<p>Correct!</p>","null","","","","","","",""
"","null","html-keyboard-response","231","2.0.0","222351","p3byua2l2w5","smaller","eagle","See if the size of an item in reality gets in the way when shown two images.","No.","<div style=""font-size:60px;"">+</div>","null","","","","","","",""
"","411","image-keyboard-response","232","2.0.0","222763","p3byua2l2w5","smaller","eagle","See if the size of an item in reality gets in the way when shown two images.","No.","stimuli/2-Inongruent.jpg","z","","","","","left","z","true"
"","null","html-keyboard-response","233","2.0.0","223666","p3byua2l2w5","smaller","eagle","See if the size of an item in reality gets in the way when shown two images.","No.","<p>Correct!</p>","null","","","","","","",""
"","null","html-keyboard-response","234","2.0.0","224668","p3byua2l2w5","smaller","eagle","See if the size of an item in reality gets in the way when shown two images.","No.","<div style=""font-size:60px;"">+</div>","null","","","","","","",""
"","382","image-keyboard-response","235","2.0.0","225052","p3byua2l2w5","smaller","eagle","See if the size of an item in reality gets in the way when shown two images.","No.","stimuli/35-Inongruent.jpg","z","","","","","left","z","true"
"","null","html-keyboard-response","236","2.0.0","225955","p3byua2l2w5","smaller","eagle","See if the size of an item in reality gets in the way when shown two images.","No.","<p>Correct!</p>","null","","","","","","",""
"","null","html-keyboard-response","237","2.0.0","226958","p3byua2l2w5","smaller","eagle","See if the size of an item in reality gets in the way when shown two images.","No.","<div style=""font-size:60px;"">+</div>","null","","","","","","",""
"","411","image-keyboard-response","238","2.0.0","227369","p3byua2l2w5","smaller","eagle","See if the size of an item in reality gets in the way when shown two images.","No.","stimuli/16-Inongruent.jpg","z","","","","","left","z","true"
"","null","html-keyboard-response","239","2.0.0","228271","p3byua2l2w5","smaller","eagle","See if the size of an item in reality gets in the way when shown two images.","No.","<p>Correct!</p>","null","","","","","","",""
"","null","html-keyboard-response","240","2.0.0","229274","p3byua2l2w5","smaller","eagle","See if the size of an item in reality gets in the way when shown two images.","No.","<div style=""font-size:60px;"">+</div>","null","","","","","","",""
"","410","image-keyboard-response","241","2.0.0","229686","p3byua2l2w5","smaller","eagle","See if the size of an item in reality gets in the way when shown two images.","No.","stimuli/19-Inongruent.jpg","z","","","","","left","z","true"
"","null","html-keyboard-response","242","2.0.0","230588","p3byua2l2w5","smaller","eagle","See if the size of an item in reality gets in the way when shown two images.","No.","<p>Correct!</p>","null","","","","","","",""
"","null","html-keyboard-response","243","2.0.0","231592","p3byua2l2w5","smaller","eagle","See if the size of an item in reality gets in the way when shown two images.","No.","<div style=""font-size:60px;"">+</div>","null","","","","","","",""
"","472","image-keyboard-response","244","2.0.0","232066","p3byua2l2w5","smaller","eagle","See if the size of an item in reality gets in the way when shown two images.","No.","stimuli/26-Congruent.jpg","m","","","","","right","m","true"
"","null","html-keyboard-response","245","2.0.0","232969","p3byua2l2w5","smaller","eagle","See if the size of an item in reality gets in the way when shown two images.","No.","<p>Correct!</p>","null","","","","","","",""
"","null","html-keyboard-response","246","2.0.0","233972","p3byua2l2w5","smaller","eagle","See if the size of an item in reality gets in the way when shown two images.","No.","<div style=""font-size:60px;"">+</div>","null","","","","","","",""
"","437","image-keyboard-response","247","2.0.0","234410","p3byua2l2w5","smaller","eagle","See if the size of an item in reality gets in the way when shown two images.","No.","stimuli/5-Congruent.jpg","m","","","","","right","m","true"
"","null","html-keyboard-response","248","2.0.0","235313","p3byua2l2w5","smaller","eagle","See if the size of an item in reality gets in the way when shown two images.","No.","<p>Correct!</p>","null","","","","","","",""
"","null","html-keyboard-response","249","2.0.0","236315","p3byua2l2w5","smaller","eagle","See if the size of an item in reality gets in the way when shown two images.","No.","<div style=""font-size:60px;"">+</div>","null","","","","","","",""
"","404","image-keyboard-response","250","2.0.0","236724","p3byua2l2w5","smaller","eagle","See if the size of an item in reality gets in the way when shown two images.","No.","stimuli/28-Inongruent.jpg","z","","","","","left","z","true"
"","null","html-keyboard-response","251","2.0.0","237626","p3byua2l2w5","smaller","eagle","See if the size of an item in reality gets in the way when shown two images.","No.","<p>Correct!</p>","null","","","","","","",""
"","null","html-keyboard-response","252","2.0.0","238628","p3byua2l2w5","smaller","eagle","See if the size of an item in reality gets in the way when shown two images.","No.","<div style=""font-size:60px;"">+</div>","null","","","","","","",""
"","424","image-keyboard-response","253","2.0.0","239054","p3byua2l2w5","smaller","eagle","See if the size of an item in reality gets in the way when shown two images.","No.","stimuli/29-Inongruent.jpg","z","","","","","left","z","true"
"","null","html-keyboard-response","254","2.0.0","239957","p3byua2l2w5","smaller","eagle","See if the size of an item in reality gets in the way when shown two images.","No.","<p>Correct!</p>","null","","","","","","",""
"","null","html-keyboard-response","255","2.0.0","240960","p3byua2l2w5","smaller","eagle","See if the size of an item in reality gets in the way when shown two images.","No.","<div style=""font-size:60px;"">+</div>","null","","","","","","",""
"","373","image-keyboard-response","256","2.0.0","241334","p3byua2l2w5","smaller","eagle","See if the size of an item in reality gets in the way when shown two images.","No.","stimuli/21-Inongruent.jpg","z","","","","","left","z","true"
"","null","html-keyboard-response","257","2.0.0","242236","p3byua2l2w5","smaller","eagle","See if the size of an item in reality gets in the way when shown two images.","No.","<p>Correct!</p>","null","","","","","","",""
"","null","html-keyboard-response","258","2.0.0","243239","p3byua2l2w5","smaller","eagle","See if the size of an item in reality gets in the way when shown two images.","No.","<div style=""font-size:60px;"">+</div>","null","","","","","","",""
"","435","image-keyboard-response","259","2.0.0","243676","p3byua2l2w5","smaller","eagle","See if the size of an item in reality gets in the way when shown two images.","No.","stimuli/15-Congruent.jpg","m","","","","","right","m","true"
"","null","html-keyboard-response","260","2.0.0","244578","p3byua2l2w5","smaller","eagle","See if the size of an item in reality gets in the way when shown two images.","No.","<p>Correct!</p>","null","","","","","","",""
"","null","html-keyboard-response","261","2.0.0","245587","p3byua2l2w5","smaller","eagle","See if the size of an item in reality gets in the way when shown two images.","No.","<div style=""font-size:60px;"">+</div>","null","","","","","","",""
"","592","image-keyboard-response","262","2.0.0","246182","p3byua2l2w5","smaller","eagle","See if the size of an item in reality gets in the way when shown two images.","No.","stimuli/22-Congruent.jpg","m","","","","","right","m","true"
"","null","html-keyboard-response","263","2.0.0","247084","p3byua2l2w5","smaller","eagle","See if the size of an item in reality gets in the way when shown two images.","No.","<p>Correct!</p>","null","","","","","","",""
"","null","html-keyboard-response","264","2.0.0","248087","p3byua2l2w5","smaller","eagle","See if the size of an item in reality gets in the way when shown two images.","No.","<div style=""font-size:60px;"">+</div>","null","","","","","","",""
"","416","image-keyboard-response","265","2.0.0","248505","p3byua2l2w5","smaller","eagle","See if the size of an item in reality gets in the way when shown two images.","No.","stimuli/1-Inongruent.jpg","z","","","","","left","z","true"
"","null","html-keyboard-response","266","2.0.0","249408","p3byua2l2w5","smaller","eagle","See if the size of an item in reality gets in the way when shown two images.","No.","<p>Correct!</p>","null","","","","","","",""
"","null","html-keyboard-response","267","2.0.0","250410","p3byua2l2w5","smaller","eagle","See if the size of an item in reality gets in the way when shown two images.","No.","<div style=""font-size:60px;"">+</div>","null","","","","","","",""
"","395","image-keyboard-response","268","2.0.0","250807","p3byua2l2w5","smaller","eagle","See if the size of an item in reality gets in the way when shown two images.","No.","stimuli/7-Inongruent.jpg","z","","","","","left","z","true"
"","null","html-keyboard-response","269","2.0.0","251710","p3byua2l2w5","smaller","eagle","See if the size of an item in reality gets in the way when shown two images.","No.","<p>Correct!</p>","null","","","","","","",""
"","null","html-keyboard-response","270","2.0.0","252712","p3byua2l2w5","smaller","eagle","See if the size of an item in reality gets in the way when shown two images.","No.","<div style=""font-size:60px;"">+</div>","null","","","","","","",""
"","507","image-keyboard-response","271","2.0.0","253221","p3byua2l2w5","smaller","eagle","See if the size of an item in reality gets in the way when shown two images.","No.","stimuli/33-Congruent.jpg","m","","","","","right","m","true"
"","null","html-keyboard-response","272","2.0.0","254123","p3byua2l2w5","smaller","eagle","See if the size of an item in reality gets in the way when shown two images.","No.","<p>Correct!</p>","null","","","","","","",""
"","null","html-keyboard-response","273","2.0.0","255126","p3byua2l2w5","smaller","eagle","See if the size of an item in reality gets in the way when shown two images.","No.","<div style=""font-size:60px;"">+</div>","null","","","","","","",""
"","512","image-keyboard-response","274","2.0.0","255643","p3byua2l2w5","smaller","eagle","See if the size of an item in reality gets in the way when shown two images.","No.","stimuli/30-Inongruent.jpg","z","","","","","left","z","true"
"","null","html-keyboard-response","275","2.0.0","256546","p3byua2l2w5","smaller","eagle","See if the size of an item in reality gets in the way when shown two images.","No.","<p>Correct!</p>","null","","","","","","",""
"","null","html-keyboard-response","276","2.0.0","257548","p3byua2l2w5","smaller","eagle","See if the size of an item in reality gets in the way when shown two images.","No.","<div style=""font-size:60px;"">+</div>","null","","","","","","",""
"","393","image-keyboard-response","277","2.0.0","257942","p3byua2l2w5","smaller","eagle","See if the size of an item in reality gets in the way when shown two images.","No.","stimuli/6-Congruent.jpg","m","","","","","right","m","true"
"","null","html-keyboard-response","278","2.0.0","258845","p3byua2l2w5","smaller","eagle","See if the size of an item in reality gets in the way when shown two images.","No.","<p>Correct!</p>","null","","","","","","",""
"","null","html-keyboard-response","279","2.0.0","259847","p3byua2l2w5","smaller","eagle","See if the size of an item in reality gets in the way when shown two images.","No.","<div style=""font-size:60px;"">+</div>","null","","","","","","",""
"","439","image-keyboard-response","280","2.0.0","260288","p3byua2l2w5","smaller","eagle","See if the size of an item in reality gets in the way when shown two images.","No.","stimuli/28-Inongruent.jpg","z","","","","","left","z","true"
"","null","html-keyboard-response","281","2.0.0","261190","p3byua2l2w5","smaller","eagle","See if the size of an item in reality gets in the way when shown two images.","No.","<p>Correct!</p>","null","","","","","","",""
"","null","html-keyboard-response","282","2.0.0","262193","p3byua2l2w5","smaller","eagle","See if the size of an item in reality gets in the way when shown two images.","No.","<div style=""font-size:60px;"">+</div>","null","","","","","","",""
"","482","image-keyboard-response","283","2.0.0","262677","p3byua2l2w5","smaller","eagle","See if the size of an item in reality gets in the way when shown two images.","No.","stimuli/18-Congruent.jpg","m","","","","","right","m","true"
"","null","html-keyboard-response","284","2.0.0","263580","p3byua2l2w5","smaller","eagle","See if the size of an item in reality gets in the way when shown two images.","No.","<p>Correct!</p>","null","","","","","","",""
"","null","html-keyboard-response","285","2.0.0","264583","p3byua2l2w5","smaller","eagle","See if the size of an item in reality gets in the way when shown two images.","No.","<div style=""font-size:60px;"">+</div>","null","","","","","","",""
"","440","image-keyboard-response","286","2.0.0","265026","p3byua2l2w5","smaller","eagle","See if the size of an item in reality gets in the way when shown two images.","No.","stimuli/8-Inongruent.jpg","z","","","","","left","z","true"
"","null","html-keyboard-response","287","2.0.0","265928","p3byua2l2w5","smaller","eagle","See if the size of an item in reality gets in the way when shown two images.","No.","<p>Correct!</p>","null","","","","","","",""
"","null","html-keyboard-response","288","2.0.0","266931","p3byua2l2w5","smaller","eagle","See if the size of an item in reality gets in the way when shown two images.","No.","<div style=""font-size:60px;"">+</div>","null","","","","","","",""
"","401","image-keyboard-response","289","2.0.0","267334","p3byua2l2w5","smaller","eagle","See if the size of an item in reality gets in the way when shown two images.","No.","stimuli/7-Inongruent.jpg","z","","","","","left","z","true"
"","null","html-keyboard-response","290","2.0.0","268237","p3byua2l2w5","smaller","eagle","See if the size of an item in reality gets in the way when shown two images.","No.","<p>Correct!</p>","null","","","","","","",""
"","null","html-keyboard-response","291","2.0.0","269239","p3byua2l2w5","smaller","eagle","See if the size of an item in reality gets in the way when shown two images.","No.","<div style=""font-size:60px;"">+</div>","null","","","","","","",""
"","691","image-keyboard-response","292","2.0.0","269932","p3byua2l2w5","smaller","eagle","See if the size of an item in reality gets in the way when shown two images.","No.","stimuli/35-Congruent.jpg","m","","","","","right","m","true"
"","null","html-keyboard-response","293","2.0.0","270834","p3byua2l2w5","smaller","eagle","See if the size of an item in reality gets in the way when shown two images.","No.","<p>Correct!</p>","null","","","","","","",""
"","null","html-keyboard-response","294","2.0.0","271836","p3byua2l2w5","smaller","eagle","See if the size of an item in reality gets in the way when shown two images.","No.","<div style=""font-size:60px;"">+</div>","null","","","","","","",""
"","410","image-keyboard-response","295","2.0.0","272248","p3byua2l2w5","smaller","eagle","See if the size of an item in reality gets in the way when shown two images.","No.","stimuli/27-Inongruent.jpg","z","","","","","left","z","true"
"","null","html-keyboard-response","296","2.0.0","273150","p3byua2l2w5","smaller","eagle","See if the size of an item in reality gets in the way when shown two images.","No.","<p>Correct!</p>","null","","","","","","",""
"","null","html-keyboard-response","297","2.0.0","274153","p3byua2l2w5","smaller","eagle","See if the size of an item in reality gets in the way when shown two images.","No.","<div style=""font-size:60px;"">+</div>","null","","","","","","",""
"","469","image-keyboard-response","298","2.0.0","274624","p3byua2l2w5","smaller","eagle","See if the size of an item in reality gets in the way when shown two images.","No.","stimuli/36-Congruent.jpg","m","","","","","right","m","true"
"","null","html-keyboard-response","299","2.0.0","275527","p3byua2l2w5","smaller","eagle","See if the size of an item in reality gets in the way when shown two images.","No.","<p>Correct!</p>","null","","","","","","",""
"","null","html-keyboard-response","300","2.0.0","276530","p3byua2l2w5","smaller","eagle","See if the size of an item in reality gets in the way when shown two images.","No.","<div style=""font-size:60px;"">+</div>","null","","","","","","",""
"","639","image-keyboard-response","301","2.0.0","277171","p3byua2l2w5","smaller","eagle","See if the size of an item in reality gets in the way when shown two images.","No.","stimuli/17-Inongruent.jpg","z","","","","","left","z","true"
"","null","html-keyboard-response","302","2.0.0","278073","p3byua2l2w5","smaller","eagle","See if the size of an item in reality gets in the way when shown two images.","No.","<p>Correct!</p>","null","","","","","","",""
"","null","html-keyboard-response","303","2.0.0","279075","p3byua2l2w5","smaller","eagle","See if the size of an item in reality gets in the way when shown two images.","No.","<div style=""font-size:60px;"">+</div>","null","","","","","","",""
"","550","image-keyboard-response","304","2.0.0","279627","p3byua2l2w5","smaller","eagle","See if the size of an item in reality gets in the way when shown two images.","No.","stimuli/13-Congruent.jpg","m","","","","","right","m","true"
"","null","html-keyboard-response","305","2.0.0","280530","p3byua2l2w5","smaller","eagle","See if the size of an item in reality gets in the way when shown two images.","No.","<p>Correct!</p>","null","","","","","","",""
"","null","html-keyboard-response","306","2.0.0","281533","p3byua2l2w5","smaller","eagle","See if the size of an item in reality gets in the way when shown two images.","No.","<div style=""font-size:60px;"">+</div>","null","","","","","","",""
"","570","image-keyboard-response","307","2.0.0","282105","p3byua2l2w5","smaller","eagle","See if the size of an item in reality gets in the way when shown two images.","No.","stimuli/26-Congruent.jpg","m","","","","","right","m","true"
"","null","html-keyboard-response","308","2.0.0","283008","p3byua2l2w5","smaller","eagle","See if the size of an item in reality gets in the way when shown two images.","No.","<p>Correct!</p>","null","","","","","","",""
"","null","html-keyboard-response","309","2.0.0","284009","p3byua2l2w5","smaller","eagle","See if the size of an item in reality gets in the way when shown two images.","No.","<div style=""font-size:60px;"">+</div>","null","","","","","","",""
"","640","image-keyboard-response","310","2.0.0","284651","p3byua2l2w5","smaller","eagle","See if the size of an item in reality gets in the way when shown two images.","No.","stimuli/8-Congruent.jpg","m","","","","","right","m","true"
"","null","html-keyboard-response","311","2.0.0","285553","p3byua2l2w5","smaller","eagle","See if the size of an item in reality gets in the way when shown two images.","No.","<p>Correct!</p>","null","","","","","","",""
"","null","html-keyboard-response","312","2.0.0","286555","p3byua2l2w5","smaller","eagle","See if the size of an item in reality gets in the way when shown two images.","No.","<div style=""font-size:60px;"">+</div>","null","","","","","","",""
"","427","image-keyboard-response","313","2.0.0","286984","p3byua2l2w5","smaller","eagle","See if the size of an item in reality gets in the way when shown two images.","No.","stimuli/24-Inongruent.jpg","z","","","","","left","z","true"
"","null","html-keyboard-response","314","2.0.0","287886","p3byua2l2w5","smaller","eagle","See if the size of an item in reality gets in the way when shown two images.","No.","<p>Correct!</p>","null","","","","","","",""
"","null","html-keyboard-response","315","2.0.0","288888","p3byua2l2w5","smaller","eagle","See if the size of an item in reality gets in the way when shown two images.","No.","<div style=""font-size:60px;"">+</div>","null","","","","","","",""
"","923","image-keyboard-response","316","2.0.0","289813","p3byua2l2w5","smaller","eagle","See if the size of an item in reality gets in the way when shown two images.","No.","stimuli/31-Inongruent.jpg","z","","","","","left","z","true"
"","null","html-keyboard-response","317","2.0.0","290716","p3byua2l2w5","smaller","eagle","See if the size of an item in reality gets in the way when shown two images.","No.","<p>Correct!</p>","null","","","","","","",""
"","null","html-keyboard-response","318","2.0.0","291719","p3byua2l2w5","smaller","eagle","See if the size of an item in reality gets in the way when shown two images.","No.","<div style=""font-size:60px;"">+</div>","null","","","","","","",""
"","636","image-keyboard-response","319","2.0.0","292356","p3byua2l2w5","smaller","eagle","See if the size of an item in reality gets in the way when shown two images.","No.","stimuli/14-Inongruent.jpg","z","","","","","left","z","true"
"","null","html-keyboard-response","320","2.0.0","293259","p3byua2l2w5","smaller","eagle","See if the size of an item in reality gets in the way when shown two images.","No.","<p>Correct!</p>","null","","","","","","",""
"","null","html-keyboard-response","321","2.0.0","294261","p3byua2l2w5","smaller","eagle","See if the size of an item in reality gets in the way when shown two images.","No.","<div style=""font-size:60px;"">+</div>","null","","","","","","",""
"","775","image-keyboard-response","322","2.0.0","295040","p3byua2l2w5","smaller","eagle","See if the size of an item in reality gets in the way when shown two images.","No.","stimuli/9-Congruent.jpg","m","","","","","right","m","true"
"","null","html-keyboard-response","323","2.0.0","295943","p3byua2l2w5","smaller","eagle","See if the size of an item in reality gets in the way when shown two images.","No.","<p>Correct!</p>","null","","","","","","",""
"","null","html-keyboard-response","324","2.0.0","296946","p3byua2l2w5","smaller","eagle","See if the size of an item in reality gets in the way when shown two images.","No.","<div style=""font-size:60px;"">+</div>","null","","","","","","",""
"","982","image-keyboard-response","325","2.0.0","297930","p3byua2l2w5","smaller","eagle","See if the size of an item in reality gets in the way when shown two images.","No.","stimuli/29-Congruent.jpg","m","","","","","right","m","true"
"","null","html-keyboard-response","326","2.0.0","298833","p3byua2l2w5","smaller","eagle","See if the size of an item in reality gets in the way when shown two images.","No.","<p>Correct!</p>","null","","","","","","",""
"","null","html-keyboard-response","327","2.0.0","299835","p3byua2l2w5","smaller","eagle","See if the size of an item in reality gets in the way when shown two images.","No.","<div style=""font-size:60px;"">+</div>","null","","","","","","",""
"","412","image-keyboard-response","328","2.0.0","300249","p3byua2l2w5","smaller","eagle","See if the size of an item in reality gets in the way when shown two images.","No.","stimuli/23-Inongruent.jpg","z","","","","","left","z","true"
"","null","html-keyboard-response","329","2.0.0","301152","p3byua2l2w5","smaller","eagle","See if the size of an item in reality gets in the way when shown two images.","No.","<p>Correct!</p>","null","","","","","","",""
"","null","html-keyboard-response","330","2.0.0","302156","p3byua2l2w5","smaller","eagle","See if the size of an item in reality gets in the way when shown two images.","No.","<div style=""font-size:60px;"">+</div>","null","","","","","","",""
"","371","image-keyboard-response","331","2.0.0","302529","p3byua2l2w5","smaller","eagle","See if the size of an item in reality gets in the way when shown two images.","No.","stimuli/27-Inongruent.jpg","z","","","","","left","z","true"
"","null","html-keyboard-response","332","2.0.0","303431","p3byua2l2w5","smaller","eagle","See if the size of an item in reality gets in the way when shown two images.","No.","<p>Correct!</p>","null","","","","","","",""
"","null","html-keyboard-response","333","2.0.0","304434","p3byua2l2w5","smaller","eagle","See if the size of an item in reality gets in the way when shown two images.","No.","<div style=""font-size:60px;"">+</div>","null","","","","","","",""
"","644","image-keyboard-response","334","2.0.0","305079","p3byua2l2w5","smaller","eagle","See if the size of an item in reality gets in the way when shown two images.","No.","stimuli/31-Inongruent.jpg","z","","","","","left","z","true"
"","null","html-keyboard-response","335","2.0.0","305982","p3byua2l2w5","smaller","eagle","See if the size of an item in reality gets in the way when shown two images.","No.","<p>Correct!</p>","null","","","","","","",""
"","null","html-keyboard-response","336","2.0.0","306986","p3byua2l2w5","smaller","eagle","See if the size of an item in reality gets in the way when shown two images.","No.","<div style=""font-size:60px;"">+</div>","null","","","","","","",""
"","1380","image-keyboard-response","337","2.0.0","308367","p3byua2l2w5","smaller","eagle","See if the size of an item in reality gets in the way when shown two images.","No.","stimuli/22-Congruent.jpg","m","","","","","right","m","true"
"","null","html-keyboard-response","338","2.0.0","309269","p3byua2l2w5","smaller","eagle","See if the size of an item in reality gets in the way when shown two images.","No.","<p>Correct!</p>","null","","","","","","",""
"","null","html-keyboard-response","339","2.0.0","310272","p3byua2l2w5","smaller","eagle","See if the size of an item in reality gets in the way when shown two images.","No.","<div style=""font-size:60px;"">+</div>","null","","","","","","",""
"","554","image-keyboard-response","340","2.0.0","310827","p3byua2l2w5","smaller","eagle","See if the size of an item in reality gets in the way when shown two images.","No.","stimuli/19-Inongruent.jpg","z","","","","","left","z","true"
"","null","html-keyboard-response","341","2.0.0","311729","p3byua2l2w5","smaller","eagle","See if the size of an item in reality gets in the way when shown two images.","No.","<p>Correct!</p>","null","","","","","","",""
"","null","html-keyboard-response","342","2.0.0","312742","p3byua2l2w5","smaller","eagle","See if the size of an item in reality gets in the way when shown two images.","No.","<div style=""font-size:60px;"">+</div>","null","","","","","","",""
"","590","image-keyboard-response","343","2.0.0","313333","p3byua2l2w5","smaller","eagle","See if the size of an item in reality gets in the way when shown two images.","No.","stimuli/16-Congruent.jpg","m","","","","","right","m","true"
"","null","html-keyboard-response","344","2.0.0","314236","p3byua2l2w5","smaller","eagle","See if the size of an item in reality gets in the way when shown two images.","No.","<p>Correct!</p>","null","","","","","","",""
"","null","html-keyboard-response","345","2.0.0","315239","p3byua2l2w5","smaller","eagle","See if the size of an item in reality gets in the way when shown two images.","No.","<div style=""font-size:60px;"">+</div>","null","","","","","","",""
"","577","image-keyboard-response","346","2.0.0","315818","p3byua2l2w5","smaller","eagle","See if the size of an item in reality gets in the way when shown two images.","No.","stimuli/30-Congruent.jpg","m","","","","","right","m","true"
"","null","html-keyboard-response","347","2.0.0","316720","p3byua2l2w5","smaller","eagle","See if the size of an item in reality gets in the way when shown two images.","No.","<p>Correct!</p>","null","","","","","","",""
"","null","html-keyboard-response","348","2.0.0","317722","p3byua2l2w5","smaller","eagle","See if the size of an item in reality gets in the way when shown two images.","No.","<div style=""font-size:60px;"">+</div>","null","","","","","","",""
"","671","image-keyboard-response","349","2.0.0","318395","p3byua2l2w5","smaller","eagle","See if the size of an item in reality gets in the way when shown two images.","No.","stimuli/14-Congruent.jpg","m","","","","","right","m","true"
"","null","html-keyboard-response","350","2.0.0","319298","p3byua2l2w5","smaller","eagle","See if the size of an item in reality gets in the way when shown two images.","No.","<p>Correct!</p>","null","","","","","","",""
"","null","html-keyboard-response","351","2.0.0","320301","p3byua2l2w5","smaller","eagle","See if the size of an item in reality gets in the way when shown two images.","No.","<div style=""font-size:60px;"">+</div>","null","","","","","","",""
"","548","image-keyboard-response","352","2.0.0","320850","p3byua2l2w5","smaller","eagle","See if the size of an item in reality gets in the way when shown two images.","No.","stimuli/3-Inongruent.jpg","z","","","","","left","z","true"
"","null","html-keyboard-response","353","2.0.0","321753","p3byua2l2w5","smaller","eagle","See if the size of an item in reality gets in the way when shown two images.","No.","<p>Correct!</p>","null","","","","","","",""
"","null","html-keyboard-response","354","2.0.0","322755","p3byua2l2w5","smaller","eagle","See if the size of an item in reality gets in the way when shown two images.","No.","<div style=""font-size:60px;"">+</div>","null","","","","","","",""
"","497","image-keyboard-response","355","2.0.0","323254","p3byua2l2w5","smaller","eagle","See if the size of an item in reality gets in the way when shown two images.","No.","stimuli/31-Congruent.jpg","m","","","","","right","m","true"
"","null","html-keyboard-response","356","2.0.0","324156","p3byua2l2w5","smaller","eagle","See if the size of an item in reality gets in the way when shown two images.","No.","<p>Correct!</p>","null","","","","","","",""
"","null","html-keyboard-response","357","2.0.0","325159","p3byua2l2w5","smaller","eagle","See if the size of an item in reality gets in the way when shown two images.","No.","<div style=""font-size:60px;"">+</div>","null","","","","","","",""
"","506","image-keyboard-response","358","2.0.0","325667","p3byua2l2w5","smaller","eagle","See if the size of an item in reality gets in the way when shown two images.","No.","stimuli/12-Inongruent.jpg","z","","","","","left","z","true"
"","null","html-keyboard-response","359","2.0.0","326569","p3byua2l2w5","smaller","eagle","See if the size of an item in reality gets in the way when shown two images.","No.","<p>Correct!</p>","null","","","","","","",""
"","null","html-keyboard-response","360","2.0.0","327571","p3byua2l2w5","smaller","eagle","See if the size of an item in reality gets in the way when shown two images.","No.","<div style=""font-size:60px;"">+</div>","null","","","","","","",""
"","698","image-keyboard-response","361","2.0.0","328271","p3byua2l2w5","smaller","eagle","See if the size of an item in reality gets in the way when shown two images.","No.","stimuli/36-Inongruent.jpg","z","","","","","left","z","true"
"","null","html-keyboard-response","362","2.0.0","329174","p3byua2l2w5","smaller","eagle","See if the size of an item in reality gets in the way when shown two images.","No.","<p>Correct!</p>","null","","","","","","",""
"","null","html-keyboard-response","363","2.0.0","330176","p3byua2l2w5","smaller","eagle","See if the size of an item in reality gets in the way when shown two images.","No.","<div style=""font-size:60px;"">+</div>","null","","","","","","",""
"","462","image-keyboard-response","364","2.0.0","330640","p3byua2l2w5","smaller","eagle","See if the size of an item in reality gets in the way when shown two images.","No.","stimuli/5-Inongruent.jpg","z","","","","","left","z","true"
"","null","html-keyboard-response","365","2.0.0","331543","p3byua2l2w5","smaller","eagle","See if the size of an item in reality gets in the way when shown two images.","No.","<p>Correct!</p>","null","","","","","","",""
"","null","html-keyboard-response","366","2.0.0","332546","p3byua2l2w5","smaller","eagle","See if the size of an item in reality gets in the way when shown two images.","No.","<div style=""font-size:60px;"">+</div>","null","","","","","","",""
"","498","image-keyboard-response","367","2.0.0","333046","p3byua2l2w5","smaller","eagle","See if the size of an item in reality gets in the way when shown two images.","No.","stimuli/6-Congruent.jpg","m","","","","","right","m","true"
"","null","html-keyboard-response","368","2.0.0","333949","p3byua2l2w5","smaller","eagle","See if the size of an item in reality gets in the way when shown two images.","No.","<p>Correct!</p>","null","","","","","","",""
"","null","html-keyboard-response","369","2.0.0","334951","p3byua2l2w5","smaller","eagle","See if the size of an item in reality gets in the way when shown two images.","No.","<div style=""font-size:60px;"">+</div>","null","","","","","","",""
"","743","image-keyboard-response","370","2.0.0","335696","p3byua2l2w5","smaller","eagle","See if the size of an item in reality gets in the way when shown two images.","No.","stimuli/30-Congruent.jpg","m","","","","","right","m","true"
"","null","html-keyboard-response","371","2.0.0","336598","p3byua2l2w5","smaller","eagle","See if the size of an item in reality gets in the way when shown two images.","No.","<p>Correct!</p>","null","","","","","","",""
"","null","html-keyboard-response","372","2.0.0","337600","p3byua2l2w5","smaller","eagle","See if the size of an item in reality gets in the way when shown two images.","No.","<div style=""font-size:60px;"">+</div>","null","","","","","","",""
"","410","image-keyboard-response","373","2.0.0","338011","p3byua2l2w5","smaller","eagle","See if the size of an item in reality gets in the way when shown two images.","No.","stimuli/14-Inongruent.jpg","z","","","","","left","z","true"
"","null","html-keyboard-response","374","2.0.0","338913","p3byua2l2w5","smaller","eagle","See if the size of an item in reality gets in the way when shown two images.","No.","<p>Correct!</p>","null","","","","","","",""
"","null","html-keyboard-response","375","2.0.0","339915","p3byua2l2w5","smaller","eagle","See if the size of an item in reality gets in the way when shown two images.","No.","<div style=""font-size:60px;"">+</div>","null","","","","","","",""
"","685","image-keyboard-response","376","2.0.0","340601","p3byua2l2w5","smaller","eagle","See if the size of an item in reality gets in the way when shown two images.","No.","stimuli/13-Inongruent.jpg","z","","","","","left","z","true"
"","null","html-keyboard-response","377","2.0.0","341504","p3byua2l2w5","smaller","eagle","See if the size of an item in reality gets in the way when shown two images.","No.","<p>Correct!</p>","null","","","","","","",""
"","null","html-keyboard-response","378","2.0.0","342507","p3byua2l2w5","smaller","eagle","See if the size of an item in reality gets in the way when shown two images.","No.","<div style=""font-size:60px;"">+</div>","null","","","","","","",""
"","733","image-keyboard-response","379","2.0.0","343242","p3byua2l2w5","smaller","eagle","See if the size of an item in reality gets in the way when shown two images.","No.","stimuli/9-Inongruent.jpg","z","","","","","left","z","true"
"","null","html-keyboard-response","380","2.0.0","344144","p3byua2l2w5","smaller","eagle","See if the size of an item in reality gets in the way when shown two images.","No.","<p>Correct!</p>","null","","","","","","",""
"","null","html-keyboard-response","381","2.0.0","345147","p3byua2l2w5","smaller","eagle","See if the size of an item in reality gets in the way when shown two images.","No.","<div style=""font-size:60px;"">+</div>","null","","","","","","",""
"","516","image-keyboard-response","382","2.0.0","345665","p3byua2l2w5","smaller","eagle","See if the size of an item in reality gets in the way when shown two images.","No.","stimuli/12-Congruent.jpg","m","","","","","right","m","true"
"","null","html-keyboard-response","383","2.0.0","346567","p3byua2l2w5","smaller","eagle","See if the size of an item in reality gets in the way when shown two images.","No.","<p>Correct!</p>","null","","","","","","",""
"","null","html-keyboard-response","384","2.0.0","347570","p3byua2l2w5","smaller","eagle","See if the size of an item in reality gets in the way when shown two images.","No.","<div style=""font-size:60px;"">+</div>","null","","","","","","",""
"","492","image-keyboard-response","385","2.0.0","348062","p3byua2l2w5","smaller","eagle","See if the size of an item in reality gets in the way when shown two images.","No.","stimuli/34-Inongruent.jpg","z","","","","","left","z","true"
"","null","html-keyboard-response","386","2.0.0","348965","p3byua2l2w5","smaller","eagle","See if the size of an item in reality gets in the way when shown two images.","No.","<p>Correct!</p>","null","","","","","","",""
"","null","html-keyboard-response","387","2.0.0","349968","p3byua2l2w5","smaller","eagle","See if the size of an item in reality gets in the way when shown two images.","No.","<div style=""font-size:60px;"">+</div>","null","","","","","","",""
"","707","image-keyboard-response","388","2.0.0","350678","p3byua2l2w5","smaller","eagle","See if the size of an item in reality gets in the way when shown two images.","No.","stimuli/34-Inongruent.jpg","z","","","","","left","z","true"
"","null","html-keyboard-response","389","2.0.0","351580","p3byua2l2w5","smaller","eagle","See if the size of an item in reality gets in the way when shown two images.","No.","<p>Correct!</p>","null","","","","","","",""
"","null","html-keyboard-response","390","2.0.0","352583","p3byua2l2w5","smaller","eagle","See if the size of an item in reality gets in the way when shown two images.","No.","<div style=""font-size:60px;"">+</div>","null","","","","","","",""
"","681","image-keyboard-response","391","2.0.0","353266","p3byua2l2w5","smaller","eagle","See if the size of an item in reality gets in the way when shown two images.","No.","stimuli/4-Congruent.jpg","m","","","","","right","m","true"
"","null","html-keyboard-response","392","2.0.0","354168","p3byua2l2w5","smaller","eagle","See if the size of an item in reality gets in the way when shown two images.","No.","<p>Correct!</p>","null","","","","","","",""
"","null","html-keyboard-response","393","2.0.0","355170","p3byua2l2w5","smaller","eagle","See if the size of an item in reality gets in the way when shown two images.","No.","<div style=""font-size:60px;"">+</div>","null","","","","","","",""
"","671","image-keyboard-response","394","2.0.0","355843","p3byua2l2w5","smaller","eagle","See if the size of an item in reality gets in the way when shown two images.","No.","stimuli/23-Congruent.jpg","m","","","","","right","m","true"
"","null","html-keyboard-response","395","2.0.0","356746","p3byua2l2w5","smaller","eagle","See if the size of an item in reality gets in the way when shown two images.","No.","<p>Correct!</p>","null","","","","","","",""
"","null","html-keyboard-response","396","2.0.0","357748","p3byua2l2w5","smaller","eagle","See if the size of an item in reality gets in the way when shown two images.","No.","<div style=""font-size:60px;"">+</div>","null","","","","","","",""
"","587","image-keyboard-response","397","2.0.0","358337","p3byua2l2w5","smaller","eagle","See if the size of an item in reality gets in the way when shown two images.","No.","stimuli/20-Inongruent.jpg","z","","","","","left","z","true"
"","null","html-keyboard-response","398","2.0.0","359239","p3byua2l2w5","smaller","eagle","See if the size of an item in reality gets in the way when shown two images.","No.","<p>Correct!</p>","null","","","","","","",""
"","null","html-keyboard-response","399","2.0.0","360241","p3byua2l2w5","smaller","eagle","See if the size of an item in reality gets in the way when shown two images.","No.","<div style=""font-size:60px;"">+</div>","null","","","","","","",""
"","812","image-keyboard-response","400","2.0.0","361055","p3byua2l2w5","smaller","eagle","See if the size of an item in reality gets in the way when shown two images.","No.","stimuli/32-Congruent.jpg","m","","","","","right","m","true"
"","null","html-keyboard-response","401","2.0.0","361958","p3byua2l2w5","smaller","eagle","See if the size of an item in reality gets in the way when shown two images.","No.","<p>Correct!</p>","null","","","","","","",""
"","null","html-keyboard-response","402","2.0.0","362961","p3byua2l2w5","smaller","eagle","See if the size of an item in reality gets in the way when shown two images.","No.","<div style=""font-size:60px;"">+</div>","null","","","","","","",""
"","627","image-keyboard-response","403","2.0.0","363590","p3byua2l2w5","smaller","eagle","See if the size of an item in reality gets in the way when shown two images.","No.","stimuli/1-Inongruent.jpg","z","","","","","left","z","true"
"","null","html-keyboard-response","404","2.0.0","364492","p3byua2l2w5","smaller","eagle","See if the size of an item in reality gets in the way when shown two images.","No.","<p>Correct!</p>","null","","","","","","",""
"","null","html-keyboard-response","405","2.0.0","365501","p3byua2l2w5","smaller","eagle","See if the size of an item in reality gets in the way when shown two images.","No.","<div style=""font-size:60px;"">+</div>","null","","","","","","",""
"","479","image-keyboard-response","406","2.0.0","365982","p3byua2l2w5","smaller","eagle","See if the size of an item in reality gets in the way when shown two images.","No.","stimuli/11-Inongruent.jpg","z","","","","","left","z","true"
"","null","html-keyboard-response","407","2.0.0","366885","p3byua2l2w5","smaller","eagle","See if the size of an item in reality gets in the way when shown two images.","No.","<p>Correct!</p>","null","","","","","","",""
"","null","html-keyboard-response","408","2.0.0","367888","p3byua2l2w5","smaller","eagle","See if the size of an item in reality gets in the way when shown two images.","No.","<div style=""font-size:60px;"">+</div>","null","","","","","","",""
"","727","image-keyboard-response","409","2.0.0","368617","p3byua2l2w5","smaller","eagle","See if the size of an item in reality gets in the way when shown two images.","No.","stimuli/23-Congruent.jpg","m","","","","","right","m","true"
"","null","html-keyboard-response","410","2.0.0","369520","p3byua2l2w5","smaller","eagle","See if the size of an item in reality gets in the way when shown two images.","No.","<p>Correct!</p>","null","","","","","","",""
"","null","html-keyboard-response","411","2.0.0","370524","p3byua2l2w5","smaller","eagle","See if the size of an item in reality gets in the way when shown two images.","No.","<div style=""font-size:60px;"">+</div>","null","","","","","","",""
"","660","image-keyboard-response","412","2.0.0","371188","p3byua2l2w5","smaller","eagle","See if the size of an item in reality gets in the way when shown two images.","No.","stimuli/9-Congruent.jpg","m","","","","","right","m","true"
"","null","html-keyboard-response","413","2.0.0","372091","p3byua2l2w5","smaller","eagle","See if the size of an item in reality gets in the way when shown two images.","No.","<p>Correct!</p>","null","","","","","","",""
"","null","html-keyboard-response","414","2.0.0","373094","p3byua2l2w5","smaller","eagle","See if the size of an item in reality gets in the way when shown two images.","No.","<div style=""font-size:60px;"">+</div>","null","","","","","","",""
"","518","image-keyboard-response","415","2.0.0","373614","p3byua2l2w5","smaller","eagle","See if the size of an item in reality gets in the way when shown two images.","No.","stimuli/13-Inongruent.jpg","z","","","","","left","z","true"
"","null","html-keyboard-response","416","2.0.0","374517","p3byua2l2w5","smaller","eagle","See if the size of an item in reality gets in the way when shown two images.","No.","<p>Correct!</p>","null","","","","","","",""
"","null","html-keyboard-response","417","2.0.0","375520","p3byua2l2w5","smaller","eagle","See if the size of an item in reality gets in the way when shown two images.","No.","<div style=""font-size:60px;"">+</div>","null","","","","","","",""
"","662","image-keyboard-response","418","2.0.0","376185","p3byua2l2w5","smaller","eagle","See if the size of an item in reality gets in the way when shown two images.","No.","stimuli/3-Congruent.jpg","m","","","","","right","m","true"
"","null","html-keyboard-response","419","2.0.0","377088","p3byua2l2w5","smaller","eagle","See if the size of an item in reality gets in the way when shown two images.","No.","<p>Correct!</p>","null","","","","","","",""
"","null","html-keyboard-response","420","2.0.0","378090","p3byua2l2w5","smaller","eagle","See if the size of an item in reality gets in the way when shown two images.","No.","<div style=""font-size:60px;"">+</div>","null","","","","","","",""
"","448","image-keyboard-response","421","2.0.0","378540","p3byua2l2w5","smaller","eagle","See if the size of an item in reality gets in the way when shown two images.","No.","stimuli/18-Inongruent.jpg","z","","","","","left","z","true"
"","null","html-keyboard-response","422","2.0.0","379442","p3byua2l2w5","smaller","eagle","See if the size of an item in reality gets in the way when shown two images.","No.","<p>Correct!</p>","null","","","","","","",""
"","null","html-keyboard-response","423","2.0.0","380445","p3byua2l2w5","smaller","eagle","See if the size of an item in reality gets in the way when shown two images.","No.","<div style=""font-size:60px;"">+</div>","null","","","","","","",""
