"success","rt","trial_type","trial_index","plugin_version","time_elapsed","random_id","condition","participant","participant_thoughts","participant_difficulties","stimulus","response","timeout","failed_images","failed_audio","failed_video","correct_response","correct_response_key","correct"
"true","1443","fullscreen","0","null","2458","p3vxfhd3zr8","bigger","moose","I think the purpose was to measure how people perceive an image's size based on its size in real life.","","","","","","","","","",""
"","1652","html-keyboard-response","1","2.0.0","4113","p3vxfhd3zr8","bigger","moose","I think the purpose was to measure how people perceive an image's size based on its size in real life.","","Welcome to the Size Stroop experiment. Press any key to begin."," ","","","","","","",""
"","null","html-keyboard-response","2","2.0.0","5120","p3vxfhd3zr8","bigger","moose","I think the purpose was to measure how people perceive an image's size based on its size in real life.","","This trial will be in fullscreen mode.","null","","","","","","",""
"","2879","survey-text","3","2.0.0","8006","p3vxfhd3zr8","bigger","moose","I think the purpose was to measure how people perceive an image's size based on its size in real life.","","","{""participant_id"":""moose""}","","","","","","",""
"","11924","html-keyboard-response","4","2.0.0","19931","p3vxfhd3zr8","bigger","moose","I think the purpose was to measure how people perceive an image's size based on its size in real life.","","<p>In this experiment, two images will appear on the screen. Identify the <strong>larger</strong> images.</p>
              <p>If the image on the left is larger, press ""z"". If the image on the right is larger, press ""m"".</p>
              <p>Press any key to begin.</p>"," ","","","","","","",""
"true","","preload","5","2.0.0","20634","p3vxfhd3zr8","bigger","moose","I think the purpose was to measure how people perceive an image's size based on its size in real life.","","","","false","[]","[]","[]","","",""
"","null","html-keyboard-response","6","2.0.0","21652","p3vxfhd3zr8","bigger","moose","I think the purpose was to measure how people perceive an image's size based on its size in real life.","","<div style=""font-size:60px;"">+</div>","null","","","","","","",""
"","1335","image-keyboard-response","7","2.0.0","22994","p3vxfhd3zr8","bigger","moose","I think the purpose was to measure how people perceive an image's size based on its size in real life.","","stimuli/15-Inongruent.jpg","z","","","","","right","m","false"
"","null","html-keyboard-response","8","2.0.0","28008","p3vxfhd3zr8","bigger","moose","I think the purpose was to measure how people perceive an image's size based on its size in real life.","","<p>Incorrect.</p><p>Remember to select the <b>bigger</b> image.</p><p>Continuing in 5 seconds...</p>","null","","","","","","",""
"","null","html-keyboard-response","9","2.0.0","29023","p3vxfhd3zr8","bigger","moose","I think the purpose was to measure how people perceive an image's size based on its size in real life.","","<div style=""font-size:60px;"">+</div>","null","","","","","","",""
"","1595","image-keyboard-response","10","2.0.0","30619","p3vxfhd3zr8","bigger","moose","I think the purpose was to measure how people perceive an image's size based on its size in real life.","","stimuli/22-Inongruent.jpg","m","","","","","right","m","true"
"","null","html-keyboard-response","11","2.0.0","31524","p3vxfhd3zr8","bigger","moose","I think the purpose was to measure how people perceive an image's size based on its size in real life.","","<p>Correct!</p>","null","","","","","","",""
"","null","html-keyboard-response","12","2.0.0","32530","p3vxfhd3zr8","bigger","moose","I think the purpose was to measure how people perceive an image's size based on its size in real life.","","<div style=""font-size:60px;"">+</div>","null","","","","","","",""
"","1445","image-keyboard-response","13","2.0.0","33977","p3vxfhd3zr8","bigger","moose","I think the purpose was to measure how people perceive an image's size based on its size in real life.","","stimuli/25-Inongruent.jpg","m","","","","","right","m","true"
"","null","html-keyboard-response","14","2.0.0","34894","p3vxfhd3zr8","bigger","moose","I think the purpose was to measure how people perceive an image's size based on its size in real life.","","<p>Correct!</p>","null","","","","","","",""
"","null","html-keyboard-response","15","2.0.0","35901","p3vxfhd3zr8","bigger","moose","I think the purpose was to measure how people perceive an image's size based on its size in real life.","","<div style=""font-size:60px;"">+</div>","null","","","","","","",""
"","1324","image-keyboard-response","16","2.0.0","37232","p3vxfhd3zr8","bigger","moose","I think the purpose was to measure how people perceive an image's size based on its size in real life.","","stimuli/14-Congruent.jpg","z","","","","","left","z","true"
"","null","html-keyboard-response","17","2.0.0","38137","p3vxfhd3zr8","bigger","moose","I think the purpose was to measure how people perceive an image's size based on its size in real life.","","<p>Correct!</p>","null","","","","","","",""
"","null","html-keyboard-response","18","2.0.0","39155","p3vxfhd3zr8","bigger","moose","I think the purpose was to measure how people perceive an image's size based on its size in real life.","","<div style=""font-size:60px;"">+</div>","null","","","","","","",""
"","1432","image-keyboard-response","19","2.0.0","40594","p3vxfhd3zr8","bigger","moose","I think the purpose was to measure how people perceive an image's size based on its size in real life.","","stimuli/16-Congruent.jpg","z","","","","","left","z","true"
"","null","html-keyboard-response","20","2.0.0","41503","p3vxfhd3zr8","bigger","moose","I think the purpose was to measure how people perceive an image's size based on its size in real life.","","<p>Correct!</p>","null","","","","","","",""
"","null","html-keyboard-response","21","2.0.0","42511","p3vxfhd3zr8","bigger","moose","I think the purpose was to measure how people perceive an image's size based on its size in real life.","","<div style=""font-size:60px;"">+</div>","null","","","","","","",""
"","1381","image-keyboard-response","22","2.0.0","43894","p3vxfhd3zr8","bigger","moose","I think the purpose was to measure how people perceive an image's size based on its size in real life.","","stimuli/36-Congruent.jpg","z","","","","","left","z","true"
"","null","html-keyboard-response","23","2.0.0","44803","p3vxfhd3zr8","bigger","moose","I think the purpose was to measure how people perceive an image's size based on its size in real life.","","<p>Correct!</p>","null","","","","","","",""
"","null","html-keyboard-response","24","2.0.0","45815","p3vxfhd3zr8","bigger","moose","I think the purpose was to measure how people perceive an image's size based on its size in real life.","","<div style=""font-size:60px;"">+</div>","null","","","","","","",""
"","1128","image-keyboard-response","25","2.0.0","46944","p3vxfhd3zr8","bigger","moose","I think the purpose was to measure how people perceive an image's size based on its size in real life.","","stimuli/3-Inongruent.jpg","m","","","","","right","m","true"
"","null","html-keyboard-response","26","2.0.0","47849","p3vxfhd3zr8","bigger","moose","I think the purpose was to measure how people perceive an image's size based on its size in real life.","","<p>Correct!</p>","null","","","","","","",""
"","null","html-keyboard-response","27","2.0.0","48852","p3vxfhd3zr8","bigger","moose","I think the purpose was to measure how people perceive an image's size based on its size in real life.","","<div style=""font-size:60px;"">+</div>","null","","","","","","",""
"","1108","image-keyboard-response","28","2.0.0","49961","p3vxfhd3zr8","bigger","moose","I think the purpose was to measure how people perceive an image's size based on its size in real life.","","stimuli/13-Congruent.jpg","z","","","","","left","z","true"
"","null","html-keyboard-response","29","2.0.0","50866","p3vxfhd3zr8","bigger","moose","I think the purpose was to measure how people perceive an image's size based on its size in real life.","","<p>Correct!</p>","null","","","","","","",""
"","null","html-keyboard-response","30","2.0.0","51880","p3vxfhd3zr8","bigger","moose","I think the purpose was to measure how people perceive an image's size based on its size in real life.","","<div style=""font-size:60px;"">+</div>","null","","","","","","",""
"","1240","image-keyboard-response","31","2.0.0","53122","p3vxfhd3zr8","bigger","moose","I think the purpose was to measure how people perceive an image's size based on its size in real life.","","stimuli/34-Inongruent.jpg","m","","","","","right","m","true"
"","null","html-keyboard-response","32","2.0.0","54030","p3vxfhd3zr8","bigger","moose","I think the purpose was to measure how people perceive an image's size based on its size in real life.","","<p>Correct!</p>","null","","","","","","",""
"","null","html-keyboard-response","33","2.0.0","55037","p3vxfhd3zr8","bigger","moose","I think the purpose was to measure how people perceive an image's size based on its size in real life.","","<div style=""font-size:60px;"">+</div>","null","","","","","","",""
"","1194","image-keyboard-response","34","2.0.0","56233","p3vxfhd3zr8","bigger","moose","I think the purpose was to measure how people perceive an image's size based on its size in real life.","","stimuli/4-Congruent.jpg","z","","","","","left","z","true"
"","null","html-keyboard-response","35","2.0.0","57142","p3vxfhd3zr8","bigger","moose","I think the purpose was to measure how people perceive an image's size based on its size in real life.","","<p>Correct!</p>","null","","","","","","",""
"","null","html-keyboard-response","36","2.0.0","58148","p3vxfhd3zr8","bigger","moose","I think the purpose was to measure how people perceive an image's size based on its size in real life.","","<div style=""font-size:60px;"">+</div>","null","","","","","","",""
"","1728","image-keyboard-response","37","2.0.0","59878","p3vxfhd3zr8","bigger","moose","I think the purpose was to measure how people perceive an image's size based on its size in real life.","","stimuli/19-Congruent.jpg","z","","","","","left","z","true"
"","null","html-keyboard-response","38","2.0.0","60786","p3vxfhd3zr8","bigger","moose","I think the purpose was to measure how people perceive an image's size based on its size in real life.","","<p>Correct!</p>","null","","","","","","",""
"","null","html-keyboard-response","39","2.0.0","61796","p3vxfhd3zr8","bigger","moose","I think the purpose was to measure how people perceive an image's size based on its size in real life.","","<div style=""font-size:60px;"">+</div>","null","","","","","","",""
"","1019","image-keyboard-response","40","2.0.0","62817","p3vxfhd3zr8","bigger","moose","I think the purpose was to measure how people perceive an image's size based on its size in real life.","","stimuli/21-Inongruent.jpg","m","","","","","right","m","true"
"","null","html-keyboard-response","41","2.0.0","63732","p3vxfhd3zr8","bigger","moose","I think the purpose was to measure how people perceive an image's size based on its size in real life.","","<p>Correct!</p>","null","","","","","","",""
"","null","html-keyboard-response","42","2.0.0","64734","p3vxfhd3zr8","bigger","moose","I think the purpose was to measure how people perceive an image's size based on its size in real life.","","<div style=""font-size:60px;"">+</div>","null","","","","","","",""
"","955","image-keyboard-response","43","2.0.0","65690","p3vxfhd3zr8","bigger","moose","I think the purpose was to measure how people perceive an image's size based on its size in real life.","","stimuli/14-Congruent.jpg","z","","","","","left","z","true"
"","null","html-keyboard-response","44","2.0.0","66605","p3vxfhd3zr8","bigger","moose","I think the purpose was to measure how people perceive an image's size based on its size in real life.","","<p>Correct!</p>","null","","","","","","",""
"","null","html-keyboard-response","45","2.0.0","67614","p3vxfhd3zr8","bigger","moose","I think the purpose was to measure how people perceive an image's size based on its size in real life.","","<div style=""font-size:60px;"">+</div>","null","","","","","","",""
"","949","image-keyboard-response","46","2.0.0","68565","p3vxfhd3zr8","bigger","moose","I think the purpose was to measure how people perceive an image's size based on its size in real life.","","stimuli/28-Congruent.jpg","z","","","","","left","z","true"
"","null","html-keyboard-response","47","2.0.0","69479","p3vxfhd3zr8","bigger","moose","I think the purpose was to measure how people perceive an image's size based on its size in real life.","","<p>Correct!</p>","null","","","","","","",""
"","null","html-keyboard-response","48","2.0.0","70493","p3vxfhd3zr8","bigger","moose","I think the purpose was to measure how people perceive an image's size based on its size in real life.","","<div style=""font-size:60px;"">+</div>","null","","","","","","",""
"","954","image-keyboard-response","49","2.0.0","71449","p3vxfhd3zr8","bigger","moose","I think the purpose was to measure how people perceive an image's size based on its size in real life.","","stimuli/23-Congruent.jpg","z","","","","","left","z","true"
"","null","html-keyboard-response","50","2.0.0","72359","p3vxfhd3zr8","bigger","moose","I think the purpose was to measure how people perceive an image's size based on its size in real life.","","<p>Correct!</p>","null","","","","","","",""
"","null","html-keyboard-response","51","2.0.0","73369","p3vxfhd3zr8","bigger","moose","I think the purpose was to measure how people perceive an image's size based on its size in real life.","","<div style=""font-size:60px;"">+</div>","null","","","","","","",""
"","801","image-keyboard-response","52","2.0.0","74172","p3vxfhd3zr8","bigger","moose","I think the purpose was to measure how people perceive an image's size based on its size in real life.","","stimuli/22-Inongruent.jpg","m","","","","","right","m","true"
"","null","html-keyboard-response","53","2.0.0","75080","p3vxfhd3zr8","bigger","moose","I think the purpose was to measure how people perceive an image's size based on its size in real life.","","<p>Correct!</p>","null","","","","","","",""
"","null","html-keyboard-response","54","2.0.0","76093","p3vxfhd3zr8","bigger","moose","I think the purpose was to measure how people perceive an image's size based on its size in real life.","","<div style=""font-size:60px;"">+</div>","null","","","","","","",""
"","739","image-keyboard-response","55","2.0.0","76833","p3vxfhd3zr8","bigger","moose","I think the purpose was to measure how people perceive an image's size based on its size in real life.","","stimuli/34-Inongruent.jpg","m","","","","","right","m","true"
"","null","html-keyboard-response","56","2.0.0","77736","p3vxfhd3zr8","bigger","moose","I think the purpose was to measure how people perceive an image's size based on its size in real life.","","<p>Correct!</p>","null","","","","","","",""
"","null","html-keyboard-response","57","2.0.0","78746","p3vxfhd3zr8","bigger","moose","I think the purpose was to measure how people perceive an image's size based on its size in real life.","","<div style=""font-size:60px;"">+</div>","null","","","","","","",""
"","711","image-keyboard-response","58","2.0.0","79459","p3vxfhd3zr8","bigger","moose","I think the purpose was to measure how people perceive an image's size based on its size in real life.","","stimuli/24-Congruent.jpg","z","","","","","left","z","true"
"","null","html-keyboard-response","59","2.0.0","80368","p3vxfhd3zr8","bigger","moose","I think the purpose was to measure how people perceive an image's size based on its size in real life.","","<p>Correct!</p>","null","","","","","","",""
"","null","html-keyboard-response","60","2.0.0","81381","p3vxfhd3zr8","bigger","moose","I think the purpose was to measure how people perceive an image's size based on its size in real life.","","<div style=""font-size:60px;"">+</div>","null","","","","","","",""
"","793","image-keyboard-response","61","2.0.0","82176","p3vxfhd3zr8","bigger","moose","I think the purpose was to measure how people perceive an image's size based on its size in real life.","","stimuli/10-Congruent.jpg","z","","","","","left","z","true"
"","null","html-keyboard-response","62","2.0.0","83087","p3vxfhd3zr8","bigger","moose","I think the purpose was to measure how people perceive an image's size based on its size in real life.","","<p>Correct!</p>","null","","","","","","",""
"","null","html-keyboard-response","63","2.0.0","84102","p3vxfhd3zr8","bigger","moose","I think the purpose was to measure how people perceive an image's size based on its size in real life.","","<div style=""font-size:60px;"">+</div>","null","","","","","","",""
"","761","image-keyboard-response","64","2.0.0","84864","p3vxfhd3zr8","bigger","moose","I think the purpose was to measure how people perceive an image's size based on its size in real life.","","stimuli/2-Inongruent.jpg","m","","","","","right","m","true"
"","null","html-keyboard-response","65","2.0.0","85779","p3vxfhd3zr8","bigger","moose","I think the purpose was to measure how people perceive an image's size based on its size in real life.","","<p>Correct!</p>","null","","","","","","",""
"","null","html-keyboard-response","66","2.0.0","86786","p3vxfhd3zr8","bigger","moose","I think the purpose was to measure how people perceive an image's size based on its size in real life.","","<div style=""font-size:60px;"">+</div>","null","","","","","","",""
"","753","image-keyboard-response","67","2.0.0","87541","p3vxfhd3zr8","bigger","moose","I think the purpose was to measure how people perceive an image's size based on its size in real life.","","stimuli/16-Inongruent.jpg","m","","","","","right","m","true"
"","null","html-keyboard-response","68","2.0.0","88448","p3vxfhd3zr8","bigger","moose","I think the purpose was to measure how people perceive an image's size based on its size in real life.","","<p>Correct!</p>","null","","","","","","",""
"","null","html-keyboard-response","69","2.0.0","89453","p3vxfhd3zr8","bigger","moose","I think the purpose was to measure how people perceive an image's size based on its size in real life.","","<div style=""font-size:60px;"">+</div>","null","","","","","","",""
"","664","image-keyboard-response","70","2.0.0","90118","p3vxfhd3zr8","bigger","moose","I think the purpose was to measure how people perceive an image's size based on its size in real life.","","stimuli/36-Congruent.jpg","z","","","","","left","z","true"
"","null","html-keyboard-response","71","2.0.0","91027","p3vxfhd3zr8","bigger","moose","I think the purpose was to measure how people perceive an image's size based on its size in real life.","","<p>Correct!</p>","null","","","","","","",""
"","null","html-keyboard-response","72","2.0.0","92034","p3vxfhd3zr8","bigger","moose","I think the purpose was to measure how people perceive an image's size based on its size in real life.","","<div style=""font-size:60px;"">+</div>","null","","","","","","",""
"","595","image-keyboard-response","73","2.0.0","92631","p3vxfhd3zr8","bigger","moose","I think the purpose was to measure how people perceive an image's size based on its size in real life.","","stimuli/7-Inongruent.jpg","m","","","","","right","m","true"
"","null","html-keyboard-response","74","2.0.0","93541","p3vxfhd3zr8","bigger","moose","I think the purpose was to measure how people perceive an image's size based on its size in real life.","","<p>Correct!</p>","null","","","","","","",""
"","null","html-keyboard-response","75","2.0.0","94542","p3vxfhd3zr8","bigger","moose","I think the purpose was to measure how people perceive an image's size based on its size in real life.","","<div style=""font-size:60px;"">+</div>","null","","","","","","",""
"","647","image-keyboard-response","76","2.0.0","95191","p3vxfhd3zr8","bigger","moose","I think the purpose was to measure how people perceive an image's size based on its size in real life.","","stimuli/35-Inongruent.jpg","m","","","","","right","m","true"
"","null","html-keyboard-response","77","2.0.0","96093","p3vxfhd3zr8","bigger","moose","I think the purpose was to measure how people perceive an image's size based on its size in real life.","","<p>Correct!</p>","null","","","","","","",""
"","null","html-keyboard-response","78","2.0.0","97107","p3vxfhd3zr8","bigger","moose","I think the purpose was to measure how people perceive an image's size based on its size in real life.","","<div style=""font-size:60px;"">+</div>","null","","","","","","",""
"","590","image-keyboard-response","79","2.0.0","97699","p3vxfhd3zr8","bigger","moose","I think the purpose was to measure how people perceive an image's size based on its size in real life.","","stimuli/24-Inongruent.jpg","m","","","","","right","m","true"
"","null","html-keyboard-response","80","2.0.0","98602","p3vxfhd3zr8","bigger","moose","I think the purpose was to measure how people perceive an image's size based on its size in real life.","","<p>Correct!</p>","null","","","","","","",""
"","null","html-keyboard-response","81","2.0.0","99608","p3vxfhd3zr8","bigger","moose","I think the purpose was to measure how people perceive an image's size based on its size in real life.","","<div style=""font-size:60px;"">+</div>","null","","","","","","",""
"","626","image-keyboard-response","82","2.0.0","100236","p3vxfhd3zr8","bigger","moose","I think the purpose was to measure how people perceive an image's size based on its size in real life.","","stimuli/35-Congruent.jpg","z","","","","","left","z","true"
"","null","html-keyboard-response","83","2.0.0","101138","p3vxfhd3zr8","bigger","moose","I think the purpose was to measure how people perceive an image's size based on its size in real life.","","<p>Correct!</p>","null","","","","","","",""
"","null","html-keyboard-response","84","2.0.0","102140","p3vxfhd3zr8","bigger","moose","I think the purpose was to measure how people perceive an image's size based on its size in real life.","","<div style=""font-size:60px;"">+</div>","null","","","","","","",""
"","577","image-keyboard-response","85","2.0.0","102719","p3vxfhd3zr8","bigger","moose","I think the purpose was to measure how people perceive an image's size based on its size in real life.","","stimuli/28-Inongruent.jpg","m","","","","","right","m","true"
"","null","html-keyboard-response","86","2.0.0","103632","p3vxfhd3zr8","bigger","moose","I think the purpose was to measure how people perceive an image's size based on its size in real life.","","<p>Correct!</p>","null","","","","","","",""
"","null","html-keyboard-response","87","2.0.0","104637","p3vxfhd3zr8","bigger","moose","I think the purpose was to measure how people perceive an image's size based on its size in real life.","","<div style=""font-size:60px;"">+</div>","null","","","","","","",""
"","750","image-keyboard-response","88","2.0.0","105388","p3vxfhd3zr8","bigger","moose","I think the purpose was to measure how people perceive an image's size based on its size in real life.","","stimuli/20-Congruent.jpg","z","","","","","left","z","true"
"","null","html-keyboard-response","89","2.0.0","106307","p3vxfhd3zr8","bigger","moose","I think the purpose was to measure how people perceive an image's size based on its size in real life.","","<p>Correct!</p>","null","","","","","","",""
"","null","html-keyboard-response","90","2.0.0","107322","p3vxfhd3zr8","bigger","moose","I think the purpose was to measure how people perceive an image's size based on its size in real life.","","<div style=""font-size:60px;"">+</div>","null","","","","","","",""
"","765","image-keyboard-response","91","2.0.0","108089","p3vxfhd3zr8","bigger","moose","I think the purpose was to measure how people perceive an image's size based on its size in real life.","","stimuli/22-Congruent.jpg","z","","","","","left","z","true"
"","null","html-keyboard-response","92","2.0.0","109001","p3vxfhd3zr8","bigger","moose","I think the purpose was to measure how people perceive an image's size based on its size in real life.","","<p>Correct!</p>","null","","","","","","",""
"","null","html-keyboard-response","93","2.0.0","110010","p3vxfhd3zr8","bigger","moose","I think the purpose was to measure how people perceive an image's size based on its size in real life.","","<div style=""font-size:60px;"">+</div>","null","","","","","","",""
"","599","image-keyboard-response","94","2.0.0","110611","p3vxfhd3zr8","bigger","moose","I think the purpose was to measure how people perceive an image's size based on its size in real life.","","stimuli/9-Inongruent.jpg","m","","","","","right","m","true"
"","null","html-keyboard-response","95","2.0.0","111523","p3vxfhd3zr8","bigger","moose","I think the purpose was to measure how people perceive an image's size based on its size in real life.","","<p>Correct!</p>","null","","","","","","",""
"","null","html-keyboard-response","96","2.0.0","112536","p3vxfhd3zr8","bigger","moose","I think the purpose was to measure how people perceive an image's size based on its size in real life.","","<div style=""font-size:60px;"">+</div>","null","","","","","","",""
"","773","image-keyboard-response","97","2.0.0","113311","p3vxfhd3zr8","bigger","moose","I think the purpose was to measure how people perceive an image's size based on its size in real life.","","stimuli/35-Inongruent.jpg","m","","","","","right","m","true"
"","null","html-keyboard-response","98","2.0.0","114222","p3vxfhd3zr8","bigger","moose","I think the purpose was to measure how people perceive an image's size based on its size in real life.","","<p>Correct!</p>","null","","","","","","",""
"","null","html-keyboard-response","99","2.0.0","115231","p3vxfhd3zr8","bigger","moose","I think the purpose was to measure how people perceive an image's size based on its size in real life.","","<div style=""font-size:60px;"">+</div>","null","","","","","","",""
"","538","image-keyboard-response","100","2.0.0","115771","p3vxfhd3zr8","bigger","moose","I think the purpose was to measure how people perceive an image's size based on its size in real life.","","stimuli/2-Congruent.jpg","z","","","","","left","z","true"
"","null","html-keyboard-response","101","2.0.0","116686","p3vxfhd3zr8","bigger","moose","I think the purpose was to measure how people perceive an image's size based on its size in real life.","","<p>Correct!</p>","null","","","","","","",""
"","null","html-keyboard-response","102","2.0.0","117700","p3vxfhd3zr8","bigger","moose","I think the purpose was to measure how people perceive an image's size based on its size in real life.","","<div style=""font-size:60px;"">+</div>","null","","","","","","",""
"","645","image-keyboard-response","103","2.0.0","118347","p3vxfhd3zr8","bigger","moose","I think the purpose was to measure how people perceive an image's size based on its size in real life.","","stimuli/35-Congruent.jpg","z","","","","","left","z","true"
"","null","html-keyboard-response","104","2.0.0","119251","p3vxfhd3zr8","bigger","moose","I think the purpose was to measure how people perceive an image's size based on its size in real life.","","<p>Correct!</p>","null","","","","","","",""
"","null","html-keyboard-response","105","2.0.0","120253","p3vxfhd3zr8","bigger","moose","I think the purpose was to measure how people perceive an image's size based on its size in real life.","","<div style=""font-size:60px;"">+</div>","null","","","","","","",""
"","540","image-keyboard-response","106","2.0.0","120796","p3vxfhd3zr8","bigger","moose","I think the purpose was to measure how people perceive an image's size based on its size in real life.","","stimuli/16-Congruent.jpg","z","","","","","left","z","true"
"","null","html-keyboard-response","107","2.0.0","121700","p3vxfhd3zr8","bigger","moose","I think the purpose was to measure how people perceive an image's size based on its size in real life.","","<p>Correct!</p>","null","","","","","","",""
"","null","html-keyboard-response","108","2.0.0","122708","p3vxfhd3zr8","bigger","moose","I think the purpose was to measure how people perceive an image's size based on its size in real life.","","<div style=""font-size:60px;"">+</div>","null","","","","","","",""
"","600","image-keyboard-response","109","2.0.0","123311","p3vxfhd3zr8","bigger","moose","I think the purpose was to measure how people perceive an image's size based on its size in real life.","","stimuli/23-Inongruent.jpg","m","","","","","right","m","true"
"","null","html-keyboard-response","110","2.0.0","124220","p3vxfhd3zr8","bigger","moose","I think the purpose was to measure how people perceive an image's size based on its size in real life.","","<p>Correct!</p>","null","","","","","","",""
"","null","html-keyboard-response","111","2.0.0","125237","p3vxfhd3zr8","bigger","moose","I think the purpose was to measure how people perceive an image's size based on its size in real life.","","<div style=""font-size:60px;"">+</div>","null","","","","","","",""
"","1093","image-keyboard-response","112","2.0.0","126332","p3vxfhd3zr8","bigger","moose","I think the purpose was to measure how people perceive an image's size based on its size in real life.","","stimuli/32-Congruent.jpg","z","","","","","left","z","true"
"","null","html-keyboard-response","113","2.0.0","127234","p3vxfhd3zr8","bigger","moose","I think the purpose was to measure how people perceive an image's size based on its size in real life.","","<p>Correct!</p>","null","","","","","","",""
"","null","html-keyboard-response","114","2.0.0","128250","p3vxfhd3zr8","bigger","moose","I think the purpose was to measure how people perceive an image's size based on its size in real life.","","<div style=""font-size:60px;"">+</div>","null","","","","","","",""
"","657","image-keyboard-response","115","2.0.0","128910","p3vxfhd3zr8","bigger","moose","I think the purpose was to measure how people perceive an image's size based on its size in real life.","","stimuli/17-Inongruent.jpg","m","","","","","right","m","true"
"","null","html-keyboard-response","116","2.0.0","129823","p3vxfhd3zr8","bigger","moose","I think the purpose was to measure how people perceive an image's size based on its size in real life.","","<p>Correct!</p>","null","","","","","","",""
"","null","html-keyboard-response","117","2.0.0","130832","p3vxfhd3zr8","bigger","moose","I think the purpose was to measure how people perceive an image's size based on its size in real life.","","<div style=""font-size:60px;"">+</div>","null","","","","","","",""
"","890","image-keyboard-response","118","2.0.0","131724","p3vxfhd3zr8","bigger","moose","I think the purpose was to measure how people perceive an image's size based on its size in real life.","","stimuli/21-Inongruent.jpg","m","","","","","right","m","true"
"","null","html-keyboard-response","119","2.0.0","132632","p3vxfhd3zr8","bigger","moose","I think the purpose was to measure how people perceive an image's size based on its size in real life.","","<p>Correct!</p>","null","","","","","","",""
"","null","html-keyboard-response","120","2.0.0","133641","p3vxfhd3zr8","bigger","moose","I think the purpose was to measure how people perceive an image's size based on its size in real life.","","<div style=""font-size:60px;"">+</div>","null","","","","","","",""
"","647","image-keyboard-response","121","2.0.0","134289","p3vxfhd3zr8","bigger","moose","I think the purpose was to measure how people perceive an image's size based on its size in real life.","","stimuli/22-Congruent.jpg","z","","","","","left","z","true"
"","null","html-keyboard-response","122","2.0.0","135192","p3vxfhd3zr8","bigger","moose","I think the purpose was to measure how people perceive an image's size based on its size in real life.","","<p>Correct!</p>","null","","","","","","",""
"","null","html-keyboard-response","123","2.0.0","136195","p3vxfhd3zr8","bigger","moose","I think the purpose was to measure how people perceive an image's size based on its size in real life.","","<div style=""font-size:60px;"">+</div>","null","","","","","","",""
"","793","image-keyboard-response","124","2.0.0","136990","p3vxfhd3zr8","bigger","moose","I think the purpose was to measure how people perceive an image's size based on its size in real life.","","stimuli/27-Inongruent.jpg","m","","","","","right","m","true"
"","null","html-keyboard-response","125","2.0.0","137896","p3vxfhd3zr8","bigger","moose","I think the purpose was to measure how people perceive an image's size based on its size in real life.","","<p>Correct!</p>","null","","","","","","",""
"","null","html-keyboard-response","126","2.0.0","138904","p3vxfhd3zr8","bigger","moose","I think the purpose was to measure how people perceive an image's size based on its size in real life.","","<div style=""font-size:60px;"">+</div>","null","","","","","","",""
"","533","image-keyboard-response","127","2.0.0","139439","p3vxfhd3zr8","bigger","moose","I think the purpose was to measure how people perceive an image's size based on its size in real life.","","stimuli/34-Congruent.jpg","z","","","","","left","z","true"
"","null","html-keyboard-response","128","2.0.0","140347","p3vxfhd3zr8","bigger","moose","I think the purpose was to measure how people perceive an image's size based on its size in real life.","","<p>Correct!</p>","null","","","","","","",""
"","null","html-keyboard-response","129","2.0.0","141351","p3vxfhd3zr8","bigger","moose","I think the purpose was to measure how people perceive an image's size based on its size in real life.","","<div style=""font-size:60px;"">+</div>","null","","","","","","",""
"","445","image-keyboard-response","130","2.0.0","141798","p3vxfhd3zr8","bigger","moose","I think the purpose was to measure how people perceive an image's size based on its size in real life.","","stimuli/34-Congruent.jpg","z","","","","","left","z","true"
"","null","html-keyboard-response","131","2.0.0","142701","p3vxfhd3zr8","bigger","moose","I think the purpose was to measure how people perceive an image's size based on its size in real life.","","<p>Correct!</p>","null","","","","","","",""
"","null","html-keyboard-response","132","2.0.0","143714","p3vxfhd3zr8","bigger","moose","I think the purpose was to measure how people perceive an image's size based on its size in real life.","","<div style=""font-size:60px;"">+</div>","null","","","","","","",""
"","747","image-keyboard-response","133","2.0.0","144463","p3vxfhd3zr8","bigger","moose","I think the purpose was to measure how people perceive an image's size based on its size in real life.","","stimuli/33-Congruent.jpg","z","","","","","left","z","true"
"","null","html-keyboard-response","134","2.0.0","145375","p3vxfhd3zr8","bigger","moose","I think the purpose was to measure how people perceive an image's size based on its size in real life.","","<p>Correct!</p>","null","","","","","","",""
"","null","html-keyboard-response","135","2.0.0","146378","p3vxfhd3zr8","bigger","moose","I think the purpose was to measure how people perceive an image's size based on its size in real life.","","<div style=""font-size:60px;"">+</div>","null","","","","","","",""
"","743","image-keyboard-response","136","2.0.0","147123","p3vxfhd3zr8","bigger","moose","I think the purpose was to measure how people perceive an image's size based on its size in real life.","","stimuli/17-Congruent.jpg","z","","","","","left","z","true"
"","null","html-keyboard-response","137","2.0.0","148030","p3vxfhd3zr8","bigger","moose","I think the purpose was to measure how people perceive an image's size based on its size in real life.","","<p>Correct!</p>","null","","","","","","",""
"","null","html-keyboard-response","138","2.0.0","149039","p3vxfhd3zr8","bigger","moose","I think the purpose was to measure how people perceive an image's size based on its size in real life.","","<div style=""font-size:60px;"">+</div>","null","","","","","","",""
"","605","image-keyboard-response","139","2.0.0","149645","p3vxfhd3zr8","bigger","moose","I think the purpose was to measure how people perceive an image's size based on its size in real life.","","stimuli/25-Inongruent.jpg","m","","","","","right","m","true"
"","null","html-keyboard-response","140","2.0.0","150554","p3vxfhd3zr8","bigger","moose","I think the purpose was to measure how people perceive an image's size based on its size in real life.","","<p>Correct!</p>","null","","","","","","",""
"","null","html-keyboard-response","141","2.0.0","151567","p3vxfhd3zr8","bigger","moose","I think the purpose was to measure how people perceive an image's size based on its size in real life.","","<div style=""font-size:60px;"">+</div>","null","","","","","","",""
"","694","image-keyboard-response","142","2.0.0","152262","p3vxfhd3zr8","bigger","moose","I think the purpose was to measure how people perceive an image's size based on its size in real life.","","stimuli/33-Inongruent.jpg","m","","","","","right","m","true"
"","null","html-keyboard-response","143","2.0.0","153168","p3vxfhd3zr8","bigger","moose","I think the purpose was to measure how people perceive an image's size based on its size in real life.","","<p>Correct!</p>","null","","","","","","",""
"","null","html-keyboard-response","144","2.0.0","154182","p3vxfhd3zr8","bigger","moose","I think the purpose was to measure how people perceive an image's size based on its size in real life.","","<div style=""font-size:60px;"">+</div>","null","","","","","","",""
"","838","image-keyboard-response","145","2.0.0","155022","p3vxfhd3zr8","bigger","moose","I think the purpose was to measure how people perceive an image's size based on its size in real life.","","stimuli/8-Congruent.jpg","z","","","","","left","z","true"
"","null","html-keyboard-response","146","2.0.0","155935","p3vxfhd3zr8","bigger","moose","I think the purpose was to measure how people perceive an image's size based on its size in real life.","","<p>Correct!</p>","null","","","","","","",""
"","null","html-keyboard-response","147","2.0.0","156943","p3vxfhd3zr8","bigger","moose","I think the purpose was to measure how people perceive an image's size based on its size in real life.","","<div style=""font-size:60px;"">+</div>","null","","","","","","",""
"","751","image-keyboard-response","148","2.0.0","157695","p3vxfhd3zr8","bigger","moose","I think the purpose was to measure how people perceive an image's size based on its size in real life.","","stimuli/25-Congruent.jpg","z","","","","","left","z","true"
"","null","html-keyboard-response","149","2.0.0","158606","p3vxfhd3zr8","bigger","moose","I think the purpose was to measure how people perceive an image's size based on its size in real life.","","<p>Correct!</p>","null","","","","","","",""
"","null","html-keyboard-response","150","2.0.0","159619","p3vxfhd3zr8","bigger","moose","I think the purpose was to measure how people perceive an image's size based on its size in real life.","","<div style=""font-size:60px;"">+</div>","null","","","","","","",""
"","592","image-keyboard-response","151","2.0.0","160212","p3vxfhd3zr8","bigger","moose","I think the purpose was to measure how people perceive an image's size based on its size in real life.","","stimuli/1-Inongruent.jpg","m","","","","","right","m","true"
"","null","html-keyboard-response","152","2.0.0","161126","p3vxfhd3zr8","bigger","moose","I think the purpose was to measure how people perceive an image's size based on its size in real life.","","<p>Correct!</p>","null","","","","","","",""
"","null","html-keyboard-response","153","2.0.0","162142","p3vxfhd3zr8","bigger","moose","I think the purpose was to measure how people perceive an image's size based on its size in real life.","","<div style=""font-size:60px;"">+</div>","null","","","","","","",""
"","707","image-keyboard-response","154","2.0.0","162851","p3vxfhd3zr8","bigger","moose","I think the purpose was to measure how people perceive an image's size based on its size in real life.","","stimuli/11-Inongruent.jpg","m","","","","","right","m","true"
"","null","html-keyboard-response","155","2.0.0","163756","p3vxfhd3zr8","bigger","moose","I think the purpose was to measure how people perceive an image's size based on its size in real life.","","<p>Correct!</p>","null","","","","","","",""
"","null","html-keyboard-response","156","2.0.0","164767","p3vxfhd3zr8","bigger","moose","I think the purpose was to measure how people perceive an image's size based on its size in real life.","","<div style=""font-size:60px;"">+</div>","null","","","","","","",""
"","489","image-keyboard-response","157","2.0.0","165258","p3vxfhd3zr8","bigger","moose","I think the purpose was to measure how people perceive an image's size based on its size in real life.","","stimuli/4-Inongruent.jpg","m","","","","","right","m","true"
"","null","html-keyboard-response","158","2.0.0","166163","p3vxfhd3zr8","bigger","moose","I think the purpose was to measure how people perceive an image's size based on its size in real life.","","<p>Correct!</p>","null","","","","","","",""
"","null","html-keyboard-response","159","2.0.0","167176","p3vxfhd3zr8","bigger","moose","I think the purpose was to measure how people perceive an image's size based on its size in real life.","","<div style=""font-size:60px;"">+</div>","null","","","","","","",""
"","507","image-keyboard-response","160","2.0.0","167684","p3vxfhd3zr8","bigger","moose","I think the purpose was to measure how people perceive an image's size based on its size in real life.","","stimuli/26-Congruent.jpg","z","","","","","left","z","true"
"","null","html-keyboard-response","161","2.0.0","168591","p3vxfhd3zr8","bigger","moose","I think the purpose was to measure how people perceive an image's size based on its size in real life.","","<p>Correct!</p>","null","","","","","","",""
"","null","html-keyboard-response","162","2.0.0","169596","p3vxfhd3zr8","bigger","moose","I think the purpose was to measure how people perceive an image's size based on its size in real life.","","<div style=""font-size:60px;"">+</div>","null","","","","","","",""
"","717","image-keyboard-response","163","2.0.0","170315","p3vxfhd3zr8","bigger","moose","I think the purpose was to measure how people perceive an image's size based on its size in real life.","","stimuli/13-Inongruent.jpg","m","","","","","right","m","true"
"","null","html-keyboard-response","164","2.0.0","171233","p3vxfhd3zr8","bigger","moose","I think the purpose was to measure how people perceive an image's size based on its size in real life.","","<p>Correct!</p>","null","","","","","","",""
"","null","html-keyboard-response","165","2.0.0","172237","p3vxfhd3zr8","bigger","moose","I think the purpose was to measure how people perceive an image's size based on its size in real life.","","<div style=""font-size:60px;"">+</div>","null","","","","","","",""
"","692","image-keyboard-response","166","2.0.0","172930","p3vxfhd3zr8","bigger","moose","I think the purpose was to measure how people perceive an image's size based on its size in real life.","","stimuli/17-Inongruent.jpg","m","","","","","right","m","true"
"","null","html-keyboard-response","167","2.0.0","173843","p3vxfhd3zr8","bigger","moose","I think the purpose was to measure how people perceive an image's size based on its size in real life.","","<p>Correct!</p>","null","","","","","","",""
"","null","html-keyboard-response","168","2.0.0","174856","p3vxfhd3zr8","bigger","moose","I think the purpose was to measure how people perceive an image's size based on its size in real life.","","<div style=""font-size:60px;"">+</div>","null","","","","","","",""
"","461","image-keyboard-response","169","2.0.0","175319","p3vxfhd3zr8","bigger","moose","I think the purpose was to measure how people perceive an image's size based on its size in real life.","","stimuli/2-Congruent.jpg","z","","","","","left","z","true"
"","null","html-keyboard-response","170","2.0.0","176229","p3vxfhd3zr8","bigger","moose","I think the purpose was to measure how people perceive an image's size based on its size in real life.","","<p>Correct!</p>","null","","","","","","",""
"","null","html-keyboard-response","171","2.0.0","177230","p3vxfhd3zr8","bigger","moose","I think the purpose was to measure how people perceive an image's size based on its size in real life.","","<div style=""font-size:60px;"">+</div>","null","","","","","","",""
"","576","image-keyboard-response","172","2.0.0","177808","p3vxfhd3zr8","bigger","moose","I think the purpose was to measure how people perceive an image's size based on its size in real life.","","stimuli/8-Inongruent.jpg","m","","","","","right","m","true"
"","null","html-keyboard-response","173","2.0.0","178722","p3vxfhd3zr8","bigger","moose","I think the purpose was to measure how people perceive an image's size based on its size in real life.","","<p>Correct!</p>","null","","","","","","",""
"","null","html-keyboard-response","174","2.0.0","179732","p3vxfhd3zr8","bigger","moose","I think the purpose was to measure how people perceive an image's size based on its size in real life.","","<div style=""font-size:60px;"">+</div>","null","","","","","","",""
"","684","image-keyboard-response","175","2.0.0","180417","p3vxfhd3zr8","bigger","moose","I think the purpose was to measure how people perceive an image's size based on its size in real life.","","stimuli/30-Inongruent.jpg","m","","","","","right","m","true"
"","null","html-keyboard-response","176","2.0.0","181322","p3vxfhd3zr8","bigger","moose","I think the purpose was to measure how people perceive an image's size based on its size in real life.","","<p>Correct!</p>","null","","","","","","",""
"","null","html-keyboard-response","177","2.0.0","182333","p3vxfhd3zr8","bigger","moose","I think the purpose was to measure how people perceive an image's size based on its size in real life.","","<div style=""font-size:60px;"">+</div>","null","","","","","","",""
"","666","image-keyboard-response","178","2.0.0","183001","p3vxfhd3zr8","bigger","moose","I think the purpose was to measure how people perceive an image's size based on its size in real life.","","stimuli/20-Inongruent.jpg","m","","","","","right","m","true"
"","null","html-keyboard-response","179","2.0.0","183912","p3vxfhd3zr8","bigger","moose","I think the purpose was to measure how people perceive an image's size based on its size in real life.","","<p>Correct!</p>","null","","","","","","",""
"","null","html-keyboard-response","180","2.0.0","184927","p3vxfhd3zr8","bigger","moose","I think the purpose was to measure how people perceive an image's size based on its size in real life.","","<div style=""font-size:60px;"">+</div>","null","","","","","","",""
"","696","image-keyboard-response","181","2.0.0","185624","p3vxfhd3zr8","bigger","moose","I think the purpose was to measure how people perceive an image's size based on its size in real life.","","stimuli/32-Inongruent.jpg","m","","","","","right","m","true"
"","null","html-keyboard-response","182","2.0.0","186533","p3vxfhd3zr8","bigger","moose","I think the purpose was to measure how people perceive an image's size based on its size in real life.","","<p>Correct!</p>","null","","","","","","",""
"","null","html-keyboard-response","183","2.0.0","187547","p3vxfhd3zr8","bigger","moose","I think the purpose was to measure how people perceive an image's size based on its size in real life.","","<div style=""font-size:60px;"">+</div>","null","","","","","","",""
"","558","image-keyboard-response","184","2.0.0","188107","p3vxfhd3zr8","bigger","moose","I think the purpose was to measure how people perceive an image's size based on its size in real life.","","stimuli/24-Congruent.jpg","z","","","","","left","z","true"
"","null","html-keyboard-response","185","2.0.0","189022","p3vxfhd3zr8","bigger","moose","I think the purpose was to measure how people perceive an image's size based on its size in real life.","","<p>Correct!</p>","null","","","","","","",""
"","null","html-keyboard-response","186","2.0.0","190030","p3vxfhd3zr8","bigger","moose","I think the purpose was to measure how people perceive an image's size based on its size in real life.","","<div style=""font-size:60px;"">+</div>","null","","","","","","",""
"","1281","image-keyboard-response","187","2.0.0","191313","p3vxfhd3zr8","bigger","moose","I think the purpose was to measure how people perceive an image's size based on its size in real life.","","stimuli/11-Congruent.jpg","z","","","","","left","z","true"
"","null","html-keyboard-response","188","2.0.0","192218","p3vxfhd3zr8","bigger","moose","I think the purpose was to measure how people perceive an image's size based on its size in real life.","","<p>Correct!</p>","null","","","","","","",""
"","null","html-keyboard-response","189","2.0.0","193233","p3vxfhd3zr8","bigger","moose","I think the purpose was to measure how people perceive an image's size based on its size in real life.","","<div style=""font-size:60px;"">+</div>","null","","","","","","",""
"","934","image-keyboard-response","190","2.0.0","194169","p3vxfhd3zr8","bigger","moose","I think the purpose was to measure how people perceive an image's size based on its size in real life.","","stimuli/14-Inongruent.jpg","m","","","","","right","m","true"
"","null","html-keyboard-response","191","2.0.0","195077","p3vxfhd3zr8","bigger","moose","I think the purpose was to measure how people perceive an image's size based on its size in real life.","","<p>Correct!</p>","null","","","","","","",""
"","null","html-keyboard-response","192","2.0.0","196079","p3vxfhd3zr8","bigger","moose","I think the purpose was to measure how people perceive an image's size based on its size in real life.","","<div style=""font-size:60px;"">+</div>","null","","","","","","",""
"","1095","image-keyboard-response","193","2.0.0","197175","p3vxfhd3zr8","bigger","moose","I think the purpose was to measure how people perceive an image's size based on its size in real life.","","stimuli/11-Congruent.jpg","z","","","","","left","z","true"
"","null","html-keyboard-response","194","2.0.0","198085","p3vxfhd3zr8","bigger","moose","I think the purpose was to measure how people perceive an image's size based on its size in real life.","","<p>Correct!</p>","null","","","","","","",""
"","null","html-keyboard-response","195","2.0.0","199093","p3vxfhd3zr8","bigger","moose","I think the purpose was to measure how people perceive an image's size based on its size in real life.","","<div style=""font-size:60px;"">+</div>","null","","","","","","",""
"","554","image-keyboard-response","196","2.0.0","199648","p3vxfhd3zr8","bigger","moose","I think the purpose was to measure how people perceive an image's size based on its size in real life.","","stimuli/7-Inongruent.jpg","m","","","","","right","m","true"
"","null","html-keyboard-response","197","2.0.0","200563","p3vxfhd3zr8","bigger","moose","I think the purpose was to measure how people perceive an image's size based on its size in real life.","","<p>Correct!</p>","null","","","","","","",""
"","null","html-keyboard-response","198","2.0.0","201571","p3vxfhd3zr8","bigger","moose","I think the purpose was to measure how people perceive an image's size based on its size in real life.","","<div style=""font-size:60px;"">+</div>","null","","","","","","",""
"","604","image-keyboard-response","199","2.0.0","202176","p3vxfhd3zr8","bigger","moose","I think the purpose was to measure how people perceive an image's size based on its size in real life.","","stimuli/20-Congruent.jpg","z","","","","","left","z","true"
"","null","html-keyboard-response","200","2.0.0","203088","p3vxfhd3zr8","bigger","moose","I think the purpose was to measure how people perceive an image's size based on its size in real life.","","<p>Correct!</p>","null","","","","","","",""
"","null","html-keyboard-response","201","2.0.0","204091","p3vxfhd3zr8","bigger","moose","I think the purpose was to measure how people perceive an image's size based on its size in real life.","","<div style=""font-size:60px;"">+</div>","null","","","","","","",""
"","621","image-keyboard-response","202","2.0.0","204714","p3vxfhd3zr8","bigger","moose","I think the purpose was to measure how people perceive an image's size based on its size in real life.","","stimuli/8-Inongruent.jpg","m","","","","","right","m","true"
"","null","html-keyboard-response","203","2.0.0","205628","p3vxfhd3zr8","bigger","moose","I think the purpose was to measure how people perceive an image's size based on its size in real life.","","<p>Correct!</p>","null","","","","","","",""
"","null","html-keyboard-response","204","2.0.0","206632","p3vxfhd3zr8","bigger","moose","I think the purpose was to measure how people perceive an image's size based on its size in real life.","","<div style=""font-size:60px;"">+</div>","null","","","","","","",""
"","779","image-keyboard-response","205","2.0.0","207413","p3vxfhd3zr8","bigger","moose","I think the purpose was to measure how people perceive an image's size based on its size in real life.","","stimuli/27-Congruent.jpg","z","","","","","left","z","true"
"","null","html-keyboard-response","206","2.0.0","208320","p3vxfhd3zr8","bigger","moose","I think the purpose was to measure how people perceive an image's size based on its size in real life.","","<p>Correct!</p>","null","","","","","","",""
"","null","html-keyboard-response","207","2.0.0","209324","p3vxfhd3zr8","bigger","moose","I think the purpose was to measure how people perceive an image's size based on its size in real life.","","<div style=""font-size:60px;"">+</div>","null","","","","","","",""
"","769","image-keyboard-response","208","2.0.0","210095","p3vxfhd3zr8","bigger","moose","I think the purpose was to measure how people perceive an image's size based on its size in real life.","","stimuli/26-Inongruent.jpg","m","","","","","right","m","true"
"","null","html-keyboard-response","209","2.0.0","211002","p3vxfhd3zr8","bigger","moose","I think the purpose was to measure how people perceive an image's size based on its size in real life.","","<p>Correct!</p>","null","","","","","","",""
"","null","html-keyboard-response","210","2.0.0","212019","p3vxfhd3zr8","bigger","moose","I think the purpose was to measure how people perceive an image's size based on its size in real life.","","<div style=""font-size:60px;"">+</div>","null","","","","","","",""
"","569","image-keyboard-response","211","2.0.0","212591","p3vxfhd3zr8","bigger","moose","I think the purpose was to measure how people perceive an image's size based on its size in real life.","","stimuli/23-Inongruent.jpg","m","","","","","right","m","true"
"","null","html-keyboard-response","212","2.0.0","213501","p3vxfhd3zr8","bigger","moose","I think the purpose was to measure how people perceive an image's size based on its size in real life.","","<p>Correct!</p>","null","","","","","","",""
"","null","html-keyboard-response","213","2.0.0","214504","p3vxfhd3zr8","bigger","moose","I think the purpose was to measure how people perceive an image's size based on its size in real life.","","<div style=""font-size:60px;"">+</div>","null","","","","","","",""
"","678","image-keyboard-response","214","2.0.0","215183","p3vxfhd3zr8","bigger","moose","I think the purpose was to measure how people perceive an image's size based on its size in real life.","","stimuli/18-Inongruent.jpg","m","","","","","right","m","true"
"","null","html-keyboard-response","215","2.0.0","216093","p3vxfhd3zr8","bigger","moose","I think the purpose was to measure how people perceive an image's size based on its size in real life.","","<p>Correct!</p>","null","","","","","","",""
"","null","html-keyboard-response","216","2.0.0","217096","p3vxfhd3zr8","bigger","moose","I think the purpose was to measure how people perceive an image's size based on its size in real life.","","<div style=""font-size:60px;"">+</div>","null","","","","","","",""
"","943","image-keyboard-response","217","2.0.0","218040","p3vxfhd3zr8","bigger","moose","I think the purpose was to measure how people perceive an image's size based on its size in real life.","","stimuli/29-Congruent.jpg","z","","","","","left","z","true"
"","null","html-keyboard-response","218","2.0.0","218942","p3vxfhd3zr8","bigger","moose","I think the purpose was to measure how people perceive an image's size based on its size in real life.","","<p>Correct!</p>","null","","","","","","",""
"","null","html-keyboard-response","219","2.0.0","219956","p3vxfhd3zr8","bigger","moose","I think the purpose was to measure how people perceive an image's size based on its size in real life.","","<div style=""font-size:60px;"">+</div>","null","","","","","","",""
"","803","image-keyboard-response","220","2.0.0","220761","p3vxfhd3zr8","bigger","moose","I think the purpose was to measure how people perceive an image's size based on its size in real life.","","stimuli/30-Congruent.jpg","z","","","","","left","z","true"
"","null","html-keyboard-response","221","2.0.0","221670","p3vxfhd3zr8","bigger","moose","I think the purpose was to measure how people perceive an image's size based on its size in real life.","","<p>Correct!</p>","null","","","","","","",""
"","null","html-keyboard-response","222","2.0.0","222675","p3vxfhd3zr8","bigger","moose","I think the purpose was to measure how people perceive an image's size based on its size in real life.","","<div style=""font-size:60px;"">+</div>","null","","","","","","",""
"","728","image-keyboard-response","223","2.0.0","223405","p3vxfhd3zr8","bigger","moose","I think the purpose was to measure how people perceive an image's size based on its size in real life.","","stimuli/33-Inongruent.jpg","m","","","","","right","m","true"
"","null","html-keyboard-response","224","2.0.0","224319","p3vxfhd3zr8","bigger","moose","I think the purpose was to measure how people perceive an image's size based on its size in real life.","","<p>Correct!</p>","null","","","","","","",""
"","null","html-keyboard-response","225","2.0.0","225326","p3vxfhd3zr8","bigger","moose","I think the purpose was to measure how people perceive an image's size based on its size in real life.","","<div style=""font-size:60px;"">+</div>","null","","","","","","",""
"","534","image-keyboard-response","226","2.0.0","225862","p3vxfhd3zr8","bigger","moose","I think the purpose was to measure how people perceive an image's size based on its size in real life.","","stimuli/23-Congruent.jpg","z","","","","","left","z","true"
"","null","html-keyboard-response","227","2.0.0","226773","p3vxfhd3zr8","bigger","moose","I think the purpose was to measure how people perceive an image's size based on its size in real life.","","<p>Correct!</p>","null","","","","","","",""
"","null","html-keyboard-response","228","2.0.0","227774","p3vxfhd3zr8","bigger","moose","I think the purpose was to measure how people perceive an image's size based on its size in real life.","","<div style=""font-size:60px;"">+</div>","null","","","","","","",""
"","792","image-keyboard-response","229","2.0.0","228568","p3vxfhd3zr8","bigger","moose","I think the purpose was to measure how people perceive an image's size based on its size in real life.","","stimuli/6-Congruent.jpg","z","","","","","left","z","true"
"","null","html-keyboard-response","230","2.0.0","229480","p3vxfhd3zr8","bigger","moose","I think the purpose was to measure how people perceive an image's size based on its size in real life.","","<p>Correct!</p>","null","","","","","","",""
"","null","html-keyboard-response","231","2.0.0","230491","p3vxfhd3zr8","bigger","moose","I think the purpose was to measure how people perceive an image's size based on its size in real life.","","<div style=""font-size:60px;"">+</div>","null","","","","","","",""
"","715","image-keyboard-response","232","2.0.0","231208","p3vxfhd3zr8","bigger","moose","I think the purpose was to measure how people perceive an image's size based on its size in real life.","","stimuli/10-Inongruent.jpg","m","","","","","right","m","true"
"","null","html-keyboard-response","233","2.0.0","232125","p3vxfhd3zr8","bigger","moose","I think the purpose was to measure how people perceive an image's size based on its size in real life.","","<p>Correct!</p>","null","","","","","","",""
"","null","html-keyboard-response","234","2.0.0","233141","p3vxfhd3zr8","bigger","moose","I think the purpose was to measure how people perceive an image's size based on its size in real life.","","<div style=""font-size:60px;"">+</div>","null","","","","","","",""
"","573","image-keyboard-response","235","2.0.0","233715","p3vxfhd3zr8","bigger","moose","I think the purpose was to measure how people perceive an image's size based on its size in real life.","","stimuli/32-Inongruent.jpg","m","","","","","right","m","true"
"","null","html-keyboard-response","236","2.0.0","234626","p3vxfhd3zr8","bigger","moose","I think the purpose was to measure how people perceive an image's size based on its size in real life.","","<p>Correct!</p>","null","","","","","","",""
"","null","html-keyboard-response","237","2.0.0","235630","p3vxfhd3zr8","bigger","moose","I think the purpose was to measure how people perceive an image's size based on its size in real life.","","<div style=""font-size:60px;"">+</div>","null","","","","","","",""
"","462","image-keyboard-response","238","2.0.0","236095","p3vxfhd3zr8","bigger","moose","I think the purpose was to measure how people perceive an image's size based on its size in real life.","","stimuli/29-Inongruent.jpg","m","","","","","right","m","true"
"","null","html-keyboard-response","239","2.0.0","236996","p3vxfhd3zr8","bigger","moose","I think the purpose was to measure how people perceive an image's size based on its size in real life.","","<p>Correct!</p>","null","","","","","","",""
"","null","html-keyboard-response","240","2.0.0","238008","p3vxfhd3zr8","bigger","moose","I think the purpose was to measure how people perceive an image's size based on its size in real life.","","<div style=""font-size:60px;"">+</div>","null","","","","","","",""
"","679","image-keyboard-response","241","2.0.0","238688","p3vxfhd3zr8","bigger","moose","I think the purpose was to measure how people perceive an image's size based on its size in real life.","","stimuli/15-Congruent.jpg","z","","","","","left","z","true"
"","null","html-keyboard-response","242","2.0.0","239597","p3vxfhd3zr8","bigger","moose","I think the purpose was to measure how people perceive an image's size based on its size in real life.","","<p>Correct!</p>","null","","","","","","",""
"","null","html-keyboard-response","243","2.0.0","240605","p3vxfhd3zr8","bigger","moose","I think the purpose was to measure how people perceive an image's size based on its size in real life.","","<div style=""font-size:60px;"">+</div>","null","","","","","","",""
"","566","image-keyboard-response","244","2.0.0","241173","p3vxfhd3zr8","bigger","moose","I think the purpose was to measure how people perceive an image's size based on its size in real life.","","stimuli/30-Inongruent.jpg","m","","","","","right","m","true"
"","null","html-keyboard-response","245","2.0.0","242078","p3vxfhd3zr8","bigger","moose","I think the purpose was to measure how people perceive an image's size based on its size in real life.","","<p>Correct!</p>","null","","","","","","",""
"","null","html-keyboard-response","246","2.0.0","243085","p3vxfhd3zr8","bigger","moose","I think the purpose was to measure how people perceive an image's size based on its size in real life.","","<div style=""font-size:60px;"">+</div>","null","","","","","","",""
"","536","image-keyboard-response","247","2.0.0","243623","p3vxfhd3zr8","bigger","moose","I think the purpose was to measure how people perceive an image's size based on its size in real life.","","stimuli/36-Inongruent.jpg","m","","","","","right","m","true"
"","null","html-keyboard-response","248","2.0.0","244526","p3vxfhd3zr8","bigger","moose","I think the purpose was to measure how people perceive an image's size based on its size in real life.","","<p>Correct!</p>","null","","","","","","",""
"","null","html-keyboard-response","249","2.0.0","245535","p3vxfhd3zr8","bigger","moose","I think the purpose was to measure how people perceive an image's size based on its size in real life.","","<div style=""font-size:60px;"">+</div>","null","","","","","","",""
"","455","image-keyboard-response","250","2.0.0","245992","p3vxfhd3zr8","bigger","moose","I think the purpose was to measure how people perceive an image's size based on its size in real life.","","stimuli/36-Inongruent.jpg","m","","","","","right","m","true"
"","null","html-keyboard-response","251","2.0.0","246909","p3vxfhd3zr8","bigger","moose","I think the purpose was to measure how people perceive an image's size based on its size in real life.","","<p>Correct!</p>","null","","","","","","",""
"","null","html-keyboard-response","252","2.0.0","247912","p3vxfhd3zr8","bigger","moose","I think the purpose was to measure how people perceive an image's size based on its size in real life.","","<div style=""font-size:60px;"">+</div>","null","","","","","","",""
"","717","image-keyboard-response","253","2.0.0","248631","p3vxfhd3zr8","bigger","moose","I think the purpose was to measure how people perceive an image's size based on its size in real life.","","stimuli/19-Inongruent.jpg","m","","","","","right","m","true"
"","null","html-keyboard-response","254","2.0.0","249539","p3vxfhd3zr8","bigger","moose","I think the purpose was to measure how people perceive an image's size based on its size in real life.","","<p>Correct!</p>","null","","","","","","",""
"","null","html-keyboard-response","255","2.0.0","250554","p3vxfhd3zr8","bigger","moose","I think the purpose was to measure how people perceive an image's size based on its size in real life.","","<div style=""font-size:60px;"">+</div>","null","","","","","","",""
"","468","image-keyboard-response","256","2.0.0","251024","p3vxfhd3zr8","bigger","moose","I think the purpose was to measure how people perceive an image's size based on its size in real life.","","stimuli/26-Congruent.jpg","z","","","","","left","z","true"
"","null","html-keyboard-response","257","2.0.0","251929","p3vxfhd3zr8","bigger","moose","I think the purpose was to measure how people perceive an image's size based on its size in real life.","","<p>Correct!</p>","null","","","","","","",""
"","null","html-keyboard-response","258","2.0.0","252937","p3vxfhd3zr8","bigger","moose","I think the purpose was to measure how people perceive an image's size based on its size in real life.","","<div style=""font-size:60px;"">+</div>","null","","","","","","",""
"","501","image-keyboard-response","259","2.0.0","253439","p3vxfhd3zr8","bigger","moose","I think the purpose was to measure how people perceive an image's size based on its size in real life.","","stimuli/19-Congruent.jpg","z","","","","","left","z","true"
"","null","html-keyboard-response","260","2.0.0","254351","p3vxfhd3zr8","bigger","moose","I think the purpose was to measure how people perceive an image's size based on its size in real life.","","<p>Correct!</p>","null","","","","","","",""
"","null","html-keyboard-response","261","2.0.0","255354","p3vxfhd3zr8","bigger","moose","I think the purpose was to measure how people perceive an image's size based on its size in real life.","","<div style=""font-size:60px;"">+</div>","null","","","","","","",""
"","780","image-keyboard-response","262","2.0.0","256136","p3vxfhd3zr8","bigger","moose","I think the purpose was to measure how people perceive an image's size based on its size in real life.","","stimuli/5-Inongruent.jpg","m","","","","","right","m","true"
"","null","html-keyboard-response","263","2.0.0","257040","p3vxfhd3zr8","bigger","moose","I think the purpose was to measure how people perceive an image's size based on its size in real life.","","<p>Correct!</p>","null","","","","","","",""
"","null","html-keyboard-response","264","2.0.0","258045","p3vxfhd3zr8","bigger","moose","I think the purpose was to measure how people perceive an image's size based on its size in real life.","","<div style=""font-size:60px;"">+</div>","null","","","","","","",""
"","537","image-keyboard-response","265","2.0.0","258584","p3vxfhd3zr8","bigger","moose","I think the purpose was to measure how people perceive an image's size based on its size in real life.","","stimuli/2-Inongruent.jpg","m","","","","","right","m","true"
"","null","html-keyboard-response","266","2.0.0","259496","p3vxfhd3zr8","bigger","moose","I think the purpose was to measure how people perceive an image's size based on its size in real life.","","<p>Correct!</p>","null","","","","","","",""
"","null","html-keyboard-response","267","2.0.0","260505","p3vxfhd3zr8","bigger","moose","I think the purpose was to measure how people perceive an image's size based on its size in real life.","","<div style=""font-size:60px;"">+</div>","null","","","","","","",""
"","458","image-keyboard-response","268","2.0.0","260964","p3vxfhd3zr8","bigger","moose","I think the purpose was to measure how people perceive an image's size based on its size in real life.","","stimuli/7-Congruent.jpg","z","","","","","left","z","true"
"","null","html-keyboard-response","269","2.0.0","261876","p3vxfhd3zr8","bigger","moose","I think the purpose was to measure how people perceive an image's size based on its size in real life.","","<p>Correct!</p>","null","","","","","","",""
"","null","html-keyboard-response","270","2.0.0","262884","p3vxfhd3zr8","bigger","moose","I think the purpose was to measure how people perceive an image's size based on its size in real life.","","<div style=""font-size:60px;"">+</div>","null","","","","","","",""
"","631","image-keyboard-response","271","2.0.0","263516","p3vxfhd3zr8","bigger","moose","I think the purpose was to measure how people perceive an image's size based on its size in real life.","","stimuli/29-Inongruent.jpg","m","","","","","right","m","true"
"","null","html-keyboard-response","272","2.0.0","264429","p3vxfhd3zr8","bigger","moose","I think the purpose was to measure how people perceive an image's size based on its size in real life.","","<p>Correct!</p>","null","","","","","","",""
"","null","html-keyboard-response","273","2.0.0","265432","p3vxfhd3zr8","bigger","moose","I think the purpose was to measure how people perceive an image's size based on its size in real life.","","<div style=""font-size:60px;"">+</div>","null","","","","","","",""
"","536","image-keyboard-response","274","2.0.0","265969","p3vxfhd3zr8","bigger","moose","I think the purpose was to measure how people perceive an image's size based on its size in real life.","","stimuli/11-Inongruent.jpg","m","","","","","right","m","true"
"","null","html-keyboard-response","275","2.0.0","266880","p3vxfhd3zr8","bigger","moose","I think the purpose was to measure how people perceive an image's size based on its size in real life.","","<p>Correct!</p>","null","","","","","","",""
"","null","html-keyboard-response","276","2.0.0","267888","p3vxfhd3zr8","bigger","moose","I think the purpose was to measure how people perceive an image's size based on its size in real life.","","<div style=""font-size:60px;"">+</div>","null","","","","","","",""
"","562","image-keyboard-response","277","2.0.0","268451","p3vxfhd3zr8","bigger","moose","I think the purpose was to measure how people perceive an image's size based on its size in real life.","","stimuli/6-Inongruent.jpg","m","","","","","right","m","true"
"","null","html-keyboard-response","278","2.0.0","269361","p3vxfhd3zr8","bigger","moose","I think the purpose was to measure how people perceive an image's size based on its size in real life.","","<p>Correct!</p>","null","","","","","","",""
"","null","html-keyboard-response","279","2.0.0","270364","p3vxfhd3zr8","bigger","moose","I think the purpose was to measure how people perceive an image's size based on its size in real life.","","<div style=""font-size:60px;"">+</div>","null","","","","","","",""
"","606","image-keyboard-response","280","2.0.0","270971","p3vxfhd3zr8","bigger","moose","I think the purpose was to measure how people perceive an image's size based on its size in real life.","","stimuli/6-Congruent.jpg","z","","","","","left","z","true"
"","null","html-keyboard-response","281","2.0.0","271876","p3vxfhd3zr8","bigger","moose","I think the purpose was to measure how people perceive an image's size based on its size in real life.","","<p>Correct!</p>","null","","","","","","",""
"","null","html-keyboard-response","282","2.0.0","272884","p3vxfhd3zr8","bigger","moose","I think the purpose was to measure how people perceive an image's size based on its size in real life.","","<div style=""font-size:60px;"">+</div>","null","","","","","","",""
"","631","image-keyboard-response","283","2.0.0","273517","p3vxfhd3zr8","bigger","moose","I think the purpose was to measure how people perceive an image's size based on its size in real life.","","stimuli/10-Congruent.jpg","z","","","","","left","z","true"
"","null","html-keyboard-response","284","2.0.0","274425","p3vxfhd3zr8","bigger","moose","I think the purpose was to measure how people perceive an image's size based on its size in real life.","","<p>Correct!</p>","null","","","","","","",""
"","null","html-keyboard-response","285","2.0.0","275428","p3vxfhd3zr8","bigger","moose","I think the purpose was to measure how people perceive an image's size based on its size in real life.","","<div style=""font-size:60px;"">+</div>","null","","","","","","",""
"","575","image-keyboard-response","286","2.0.0","276005","p3vxfhd3zr8","bigger","moose","I think the purpose was to measure how people perceive an image's size based on its size in real life.","","stimuli/16-Inongruent.jpg","m","","","","","right","m","true"
"","null","html-keyboard-response","287","2.0.0","276912","p3vxfhd3zr8","bigger","moose","I think the purpose was to measure how people perceive an image's size based on its size in real life.","","<p>Correct!</p>","null","","","","","","",""
"","null","html-keyboard-response","288","2.0.0","277925","p3vxfhd3zr8","bigger","moose","I think the purpose was to measure how people perceive an image's size based on its size in real life.","","<div style=""font-size:60px;"">+</div>","null","","","","","","",""
"","503","image-keyboard-response","289","2.0.0","278429","p3vxfhd3zr8","bigger","moose","I think the purpose was to measure how people perceive an image's size based on its size in real life.","","stimuli/30-Congruent.jpg","z","","","","","left","z","true"
"","null","html-keyboard-response","290","2.0.0","279346","p3vxfhd3zr8","bigger","moose","I think the purpose was to measure how people perceive an image's size based on its size in real life.","","<p>Correct!</p>","null","","","","","","",""
"","null","html-keyboard-response","291","2.0.0","280350","p3vxfhd3zr8","bigger","moose","I think the purpose was to measure how people perceive an image's size based on its size in real life.","","<div style=""font-size:60px;"">+</div>","null","","","","","","",""
"","808","image-keyboard-response","292","2.0.0","281160","p3vxfhd3zr8","bigger","moose","I think the purpose was to measure how people perceive an image's size based on its size in real life.","","stimuli/15-Congruent.jpg","z","","","","","left","z","true"
"","null","html-keyboard-response","293","2.0.0","282064","p3vxfhd3zr8","bigger","moose","I think the purpose was to measure how people perceive an image's size based on its size in real life.","","<p>Correct!</p>","null","","","","","","",""
"","null","html-keyboard-response","294","2.0.0","283077","p3vxfhd3zr8","bigger","moose","I think the purpose was to measure how people perceive an image's size based on its size in real life.","","<div style=""font-size:60px;"">+</div>","null","","","","","","",""
"","610","image-keyboard-response","295","2.0.0","283689","p3vxfhd3zr8","bigger","moose","I think the purpose was to measure how people perceive an image's size based on its size in real life.","","stimuli/9-Congruent.jpg","z","","","","","left","z","true"
"","null","html-keyboard-response","296","2.0.0","284602","p3vxfhd3zr8","bigger","moose","I think the purpose was to measure how people perceive an image's size based on its size in real life.","","<p>Correct!</p>","null","","","","","","",""
"","null","html-keyboard-response","297","2.0.0","285611","p3vxfhd3zr8","bigger","moose","I think the purpose was to measure how people perceive an image's size based on its size in real life.","","<div style=""font-size:60px;"">+</div>","null","","","","","","",""
"","513","image-keyboard-response","298","2.0.0","286125","p3vxfhd3zr8","bigger","moose","I think the purpose was to measure how people perceive an image's size based on its size in real life.","","stimuli/20-Inongruent.jpg","m","","","","","right","m","true"
"","null","html-keyboard-response","299","2.0.0","287028","p3vxfhd3zr8","bigger","moose","I think the purpose was to measure how people perceive an image's size based on its size in real life.","","<p>Correct!</p>","null","","","","","","",""
"","null","html-keyboard-response","300","2.0.0","288030","p3vxfhd3zr8","bigger","moose","I think the purpose was to measure how people perceive an image's size based on its size in real life.","","<div style=""font-size:60px;"">+</div>","null","","","","","","",""
"","506","image-keyboard-response","301","2.0.0","288537","p3vxfhd3zr8","bigger","moose","I think the purpose was to measure how people perceive an image's size based on its size in real life.","","stimuli/6-Inongruent.jpg","m","","","","","right","m","true"
"","null","html-keyboard-response","302","2.0.0","289456","p3vxfhd3zr8","bigger","moose","I think the purpose was to measure how people perceive an image's size based on its size in real life.","","<p>Correct!</p>","null","","","","","","",""
"","null","html-keyboard-response","303","2.0.0","290472","p3vxfhd3zr8","bigger","moose","I think the purpose was to measure how people perceive an image's size based on its size in real life.","","<div style=""font-size:60px;"">+</div>","null","","","","","","",""
"","649","image-keyboard-response","304","2.0.0","291122","p3vxfhd3zr8","bigger","moose","I think the purpose was to measure how people perceive an image's size based on its size in real life.","","stimuli/26-Inongruent.jpg","m","","","","","right","m","true"
"","null","html-keyboard-response","305","2.0.0","292034","p3vxfhd3zr8","bigger","moose","I think the purpose was to measure how people perceive an image's size based on its size in real life.","","<p>Correct!</p>","null","","","","","","",""
"","null","html-keyboard-response","306","2.0.0","293050","p3vxfhd3zr8","bigger","moose","I think the purpose was to measure how people perceive an image's size based on its size in real life.","","<div style=""font-size:60px;"">+</div>","null","","","","","","",""
"","852","image-keyboard-response","307","2.0.0","293904","p3vxfhd3zr8","bigger","moose","I think the purpose was to measure how people perceive an image's size based on its size in real life.","","stimuli/10-Inongruent.jpg","m","","","","","right","m","true"
"","null","html-keyboard-response","308","2.0.0","294809","p3vxfhd3zr8","bigger","moose","I think the purpose was to measure how people perceive an image's size based on its size in real life.","","<p>Correct!</p>","null","","","","","","",""
"","null","html-keyboard-response","309","2.0.0","295822","p3vxfhd3zr8","bigger","moose","I think the purpose was to measure how people perceive an image's size based on its size in real life.","","<div style=""font-size:60px;"">+</div>","null","","","","","","",""
"","747","image-keyboard-response","310","2.0.0","296571","p3vxfhd3zr8","bigger","moose","I think the purpose was to measure how people perceive an image's size based on its size in real life.","","stimuli/5-Congruent.jpg","z","","","","","left","z","true"
"","null","html-keyboard-response","311","2.0.0","297488","p3vxfhd3zr8","bigger","moose","I think the purpose was to measure how people perceive an image's size based on its size in real life.","","<p>Correct!</p>","null","","","","","","",""
"","null","html-keyboard-response","312","2.0.0","298493","p3vxfhd3zr8","bigger","moose","I think the purpose was to measure how people perceive an image's size based on its size in real life.","","<div style=""font-size:60px;"">+</div>","null","","","","","","",""
"","503","image-keyboard-response","313","2.0.0","298998","p3vxfhd3zr8","bigger","moose","I think the purpose was to measure how people perceive an image's size based on its size in real life.","","stimuli/7-Congruent.jpg","z","","","","","left","z","true"
"","null","html-keyboard-response","314","2.0.0","299908","p3vxfhd3zr8","bigger","moose","I think the purpose was to measure how people perceive an image's size based on its size in real life.","","<p>Correct!</p>","null","","","","","","",""
"","null","html-keyboard-response","315","2.0.0","300922","p3vxfhd3zr8","bigger","moose","I think the purpose was to measure how people perceive an image's size based on its size in real life.","","<div style=""font-size:60px;"">+</div>","null","","","","","","",""
"","487","image-keyboard-response","316","2.0.0","301411","p3vxfhd3zr8","bigger","moose","I think the purpose was to measure how people perceive an image's size based on its size in real life.","","stimuli/3-Inongruent.jpg","m","","","","","right","m","true"
"","null","html-keyboard-response","317","2.0.0","302328","p3vxfhd3zr8","bigger","moose","I think the purpose was to measure how people perceive an image's size based on its size in real life.","","<p>Correct!</p>","null","","","","","","",""
"","null","html-keyboard-response","318","2.0.0","303332","p3vxfhd3zr8","bigger","moose","I think the purpose was to measure how people perceive an image's size based on its size in real life.","","<div style=""font-size:60px;"">+</div>","null","","","","","","",""
"","492","image-keyboard-response","319","2.0.0","303826","p3vxfhd3zr8","bigger","moose","I think the purpose was to measure how people perceive an image's size based on its size in real life.","","stimuli/1-Inongruent.jpg","m","","","","","right","m","true"
"","null","html-keyboard-response","320","2.0.0","304741","p3vxfhd3zr8","bigger","moose","I think the purpose was to measure how people perceive an image's size based on its size in real life.","","<p>Correct!</p>","null","","","","","","",""
"","null","html-keyboard-response","321","2.0.0","305759","p3vxfhd3zr8","bigger","moose","I think the purpose was to measure how people perceive an image's size based on its size in real life.","","<div style=""font-size:60px;"">+</div>","null","","","","","","",""
"","422","image-keyboard-response","322","2.0.0","306182","p3vxfhd3zr8","bigger","moose","I think the purpose was to measure how people perceive an image's size based on its size in real life.","","stimuli/28-Inongruent.jpg","m","","","","","right","m","true"
"","null","html-keyboard-response","323","2.0.0","307091","p3vxfhd3zr8","bigger","moose","I think the purpose was to measure how people perceive an image's size based on its size in real life.","","<p>Correct!</p>","null","","","","","","",""
"","null","html-keyboard-response","324","2.0.0","308100","p3vxfhd3zr8","bigger","moose","I think the purpose was to measure how people perceive an image's size based on its size in real life.","","<div style=""font-size:60px;"">+</div>","null","","","","","","",""
"","471","image-keyboard-response","325","2.0.0","308572","p3vxfhd3zr8","bigger","moose","I think the purpose was to measure how people perceive an image's size based on its size in real life.","","stimuli/18-Congruent.jpg","z","","","","","left","z","true"
"","null","html-keyboard-response","326","2.0.0","309476","p3vxfhd3zr8","bigger","moose","I think the purpose was to measure how people perceive an image's size based on its size in real life.","","<p>Correct!</p>","null","","","","","","",""
"","null","html-keyboard-response","327","2.0.0","310487","p3vxfhd3zr8","bigger","moose","I think the purpose was to measure how people perceive an image's size based on its size in real life.","","<div style=""font-size:60px;"">+</div>","null","","","","","","",""
"","546","image-keyboard-response","328","2.0.0","311034","p3vxfhd3zr8","bigger","moose","I think the purpose was to measure how people perceive an image's size based on its size in real life.","","stimuli/25-Congruent.jpg","z","","","","","left","z","true"
"","null","html-keyboard-response","329","2.0.0","311943","p3vxfhd3zr8","bigger","moose","I think the purpose was to measure how people perceive an image's size based on its size in real life.","","<p>Correct!</p>","null","","","","","","",""
"","null","html-keyboard-response","330","2.0.0","312958","p3vxfhd3zr8","bigger","moose","I think the purpose was to measure how people perceive an image's size based on its size in real life.","","<div style=""font-size:60px;"">+</div>","null","","","","","","",""
"","559","image-keyboard-response","331","2.0.0","313519","p3vxfhd3zr8","bigger","moose","I think the purpose was to measure how people perceive an image's size based on its size in real life.","","stimuli/27-Congruent.jpg","z","","","","","left","z","true"
"","null","html-keyboard-response","332","2.0.0","314424","p3vxfhd3zr8","bigger","moose","I think the purpose was to measure how people perceive an image's size based on its size in real life.","","<p>Correct!</p>","null","","","","","","",""
"","null","html-keyboard-response","333","2.0.0","315433","p3vxfhd3zr8","bigger","moose","I think the purpose was to measure how people perceive an image's size based on its size in real life.","","<div style=""font-size:60px;"">+</div>","null","","","","","","",""
"","686","image-keyboard-response","334","2.0.0","316121","p3vxfhd3zr8","bigger","moose","I think the purpose was to measure how people perceive an image's size based on its size in real life.","","stimuli/18-Inongruent.jpg","m","","","","","right","m","true"
"","null","html-keyboard-response","335","2.0.0","317037","p3vxfhd3zr8","bigger","moose","I think the purpose was to measure how people perceive an image's size based on its size in real life.","","<p>Correct!</p>","null","","","","","","",""
"","null","html-keyboard-response","336","2.0.0","318040","p3vxfhd3zr8","bigger","moose","I think the purpose was to measure how people perceive an image's size based on its size in real life.","","<div style=""font-size:60px;"">+</div>","null","","","","","","",""
"","425","image-keyboard-response","337","2.0.0","318467","p3vxfhd3zr8","bigger","moose","I think the purpose was to measure how people perceive an image's size based on its size in real life.","","stimuli/8-Congruent.jpg","z","","","","","left","z","true"
"","null","html-keyboard-response","338","2.0.0","319379","p3vxfhd3zr8","bigger","moose","I think the purpose was to measure how people perceive an image's size based on its size in real life.","","<p>Correct!</p>","null","","","","","","",""
"","null","html-keyboard-response","339","2.0.0","320392","p3vxfhd3zr8","bigger","moose","I think the purpose was to measure how people perceive an image's size based on its size in real life.","","<div style=""font-size:60px;"">+</div>","null","","","","","","",""
"","458","image-keyboard-response","340","2.0.0","320852","p3vxfhd3zr8","bigger","moose","I think the purpose was to measure how people perceive an image's size based on its size in real life.","","stimuli/14-Inongruent.jpg","m","","","","","right","m","true"
"","null","html-keyboard-response","341","2.0.0","321770","p3vxfhd3zr8","bigger","moose","I think the purpose was to measure how people perceive an image's size based on its size in real life.","","<p>Correct!</p>","null","","","","","","",""
"","null","html-keyboard-response","342","2.0.0","322782","p3vxfhd3zr8","bigger","moose","I think the purpose was to measure how people perceive an image's size based on its size in real life.","","<div style=""font-size:60px;"">+</div>","null","","","","","","",""
"","441","image-keyboard-response","343","2.0.0","323225","p3vxfhd3zr8","bigger","moose","I think the purpose was to measure how people perceive an image's size based on its size in real life.","","stimuli/18-Congruent.jpg","z","","","","","left","z","true"
"","null","html-keyboard-response","344","2.0.0","324141","p3vxfhd3zr8","bigger","moose","I think the purpose was to measure how people perceive an image's size based on its size in real life.","","<p>Correct!</p>","null","","","","","","",""
"","null","html-keyboard-response","345","2.0.0","325156","p3vxfhd3zr8","bigger","moose","I think the purpose was to measure how people perceive an image's size based on its size in real life.","","<div style=""font-size:60px;"">+</div>","null","","","","","","",""
"","573","image-keyboard-response","346","2.0.0","325730","p3vxfhd3zr8","bigger","moose","I think the purpose was to measure how people perceive an image's size based on its size in real life.","","stimuli/27-Inongruent.jpg","m","","","","","right","m","true"
"","null","html-keyboard-response","347","2.0.0","326643","p3vxfhd3zr8","bigger","moose","I think the purpose was to measure how people perceive an image's size based on its size in real life.","","<p>Correct!</p>","null","","","","","","",""
"","null","html-keyboard-response","348","2.0.0","327653","p3vxfhd3zr8","bigger","moose","I think the purpose was to measure how people perceive an image's size based on its size in real life.","","<div style=""font-size:60px;"">+</div>","null","","","","","","",""
"","416","image-keyboard-response","349","2.0.0","328070","p3vxfhd3zr8","bigger","moose","I think the purpose was to measure how people perceive an image's size based on its size in real life.","","stimuli/9-Inongruent.jpg","m","","","","","right","m","true"
"","null","html-keyboard-response","350","2.0.0","328975","p3vxfhd3zr8","bigger","moose","I think the purpose was to measure how people perceive an image's size based on its size in real life.","","<p>Correct!</p>","null","","","","","","",""
"","null","html-keyboard-response","351","2.0.0","329994","p3vxfhd3zr8","bigger","moose","I think the purpose was to measure how people perceive an image's size based on its size in real life.","","<div style=""font-size:60px;"">+</div>","null","","","","","","",""
"","526","image-keyboard-response","352","2.0.0","330521","p3vxfhd3zr8","bigger","moose","I think the purpose was to measure how people perceive an image's size based on its size in real life.","","stimuli/24-Inongruent.jpg","m","","","","","right","m","true"
"","null","html-keyboard-response","353","2.0.0","331431","p3vxfhd3zr8","bigger","moose","I think the purpose was to measure how people perceive an image's size based on its size in real life.","","<p>Correct!</p>","null","","","","","","",""
"","null","html-keyboard-response","354","2.0.0","332440","p3vxfhd3zr8","bigger","moose","I think the purpose was to measure how people perceive an image's size based on its size in real life.","","<div style=""font-size:60px;"">+</div>","null","","","","","","",""
"","516","image-keyboard-response","355","2.0.0","332958","p3vxfhd3zr8","bigger","moose","I think the purpose was to measure how people perceive an image's size based on its size in real life.","","stimuli/31-Congruent.jpg","z","","","","","left","z","true"
"","null","html-keyboard-response","356","2.0.0","333876","p3vxfhd3zr8","bigger","moose","I think the purpose was to measure how people perceive an image's size based on its size in real life.","","<p>Correct!</p>","null","","","","","","",""
"","null","html-keyboard-response","357","2.0.0","334888","p3vxfhd3zr8","bigger","moose","I think the purpose was to measure how people perceive an image's size based on its size in real life.","","<div style=""font-size:60px;"">+</div>","null","","","","","","",""
"","424","image-keyboard-response","358","2.0.0","335314","p3vxfhd3zr8","bigger","moose","I think the purpose was to measure how people perceive an image's size based on its size in real life.","","stimuli/12-Inongruent.jpg","m","","","","","right","m","true"
"","null","html-keyboard-response","359","2.0.0","336217","p3vxfhd3zr8","bigger","moose","I think the purpose was to measure how people perceive an image's size based on its size in real life.","","<p>Correct!</p>","null","","","","","","",""
"","null","html-keyboard-response","360","2.0.0","337236","p3vxfhd3zr8","bigger","moose","I think the purpose was to measure how people perceive an image's size based on its size in real life.","","<div style=""font-size:60px;"">+</div>","null","","","","","","",""
"","433","image-keyboard-response","361","2.0.0","337671","p3vxfhd3zr8","bigger","moose","I think the purpose was to measure how people perceive an image's size based on its size in real life.","","stimuli/12-Inongruent.jpg","m","","","","","right","m","true"
"","null","html-keyboard-response","362","2.0.0","338575","p3vxfhd3zr8","bigger","moose","I think the purpose was to measure how people perceive an image's size based on its size in real life.","","<p>Correct!</p>","null","","","","","","",""
"","null","html-keyboard-response","363","2.0.0","339578","p3vxfhd3zr8","bigger","moose","I think the purpose was to measure how people perceive an image's size based on its size in real life.","","<div style=""font-size:60px;"">+</div>","null","","","","","","",""
"","543","image-keyboard-response","364","2.0.0","340122","p3vxfhd3zr8","bigger","moose","I think the purpose was to measure how people perceive an image's size based on its size in real life.","","stimuli/33-Congruent.jpg","z","","","","","left","z","true"
"","null","html-keyboard-response","365","2.0.0","341026","p3vxfhd3zr8","bigger","moose","I think the purpose was to measure how people perceive an image's size based on its size in real life.","","<p>Correct!</p>","null","","","","","","",""
"","null","html-keyboard-response","366","2.0.0","342034","p3vxfhd3zr8","bigger","moose","I think the purpose was to measure how people perceive an image's size based on its size in real life.","","<div style=""font-size:60px;"">+</div>","null","","","","","","",""
"","419","image-keyboard-response","367","2.0.0","342454","p3vxfhd3zr8","bigger","moose","I think the purpose was to measure how people perceive an image's size based on its size in real life.","","stimuli/12-Congruent.jpg","z","","","","","left","z","true"
"","null","html-keyboard-response","368","2.0.0","343368","p3vxfhd3zr8","bigger","moose","I think the purpose was to measure how people perceive an image's size based on its size in real life.","","<p>Correct!</p>","null","","","","","","",""
"","null","html-keyboard-response","369","2.0.0","344372","p3vxfhd3zr8","bigger","moose","I think the purpose was to measure how people perceive an image's size based on its size in real life.","","<div style=""font-size:60px;"">+</div>","null","","","","","","",""
"","733","image-keyboard-response","370","2.0.0","345107","p3vxfhd3zr8","bigger","moose","I think the purpose was to measure how people perceive an image's size based on its size in real life.","","stimuli/1-Congruent.jpg","z","","","","","left","z","true"
"","null","html-keyboard-response","371","2.0.0","346010","p3vxfhd3zr8","bigger","moose","I think the purpose was to measure how people perceive an image's size based on its size in real life.","","<p>Correct!</p>","null","","","","","","",""
"","null","html-keyboard-response","372","2.0.0","347021","p3vxfhd3zr8","bigger","moose","I think the purpose was to measure how people perceive an image's size based on its size in real life.","","<div style=""font-size:60px;"">+</div>","null","","","","","","",""
"","832","image-keyboard-response","373","2.0.0","347855","p3vxfhd3zr8","bigger","moose","I think the purpose was to measure how people perceive an image's size based on its size in real life.","","stimuli/1-Congruent.jpg","z","","","","","left","z","true"
"","null","html-keyboard-response","374","2.0.0","348763","p3vxfhd3zr8","bigger","moose","I think the purpose was to measure how people perceive an image's size based on its size in real life.","","<p>Correct!</p>","null","","","","","","",""
"","null","html-keyboard-response","375","2.0.0","349770","p3vxfhd3zr8","bigger","moose","I think the purpose was to measure how people perceive an image's size based on its size in real life.","","<div style=""font-size:60px;"">+</div>","null","","","","","","",""
"","714","image-keyboard-response","376","2.0.0","350486","p3vxfhd3zr8","bigger","moose","I think the purpose was to measure how people perceive an image's size based on its size in real life.","","stimuli/31-Inongruent.jpg","m","","","","","right","m","true"
"","null","html-keyboard-response","377","2.0.0","351397","p3vxfhd3zr8","bigger","moose","I think the purpose was to measure how people perceive an image's size based on its size in real life.","","<p>Correct!</p>","null","","","","","","",""
"","null","html-keyboard-response","378","2.0.0","352402","p3vxfhd3zr8","bigger","moose","I think the purpose was to measure how people perceive an image's size based on its size in real life.","","<div style=""font-size:60px;"">+</div>","null","","","","","","",""
"","752","image-keyboard-response","379","2.0.0","353157","p3vxfhd3zr8","bigger","moose","I think the purpose was to measure how people perceive an image's size based on its size in real life.","","stimuli/21-Congruent.jpg","z","","","","","left","z","true"
"","null","html-keyboard-response","380","2.0.0","354060","p3vxfhd3zr8","bigger","moose","I think the purpose was to measure how people perceive an image's size based on its size in real life.","","<p>Correct!</p>","null","","","","","","",""
"","null","html-keyboard-response","381","2.0.0","355074","p3vxfhd3zr8","bigger","moose","I think the purpose was to measure how people perceive an image's size based on its size in real life.","","<div style=""font-size:60px;"">+</div>","null","","","","","","",""
"","535","image-keyboard-response","382","2.0.0","355611","p3vxfhd3zr8","bigger","moose","I think the purpose was to measure how people perceive an image's size based on its size in real life.","","stimuli/19-Inongruent.jpg","m","","","","","right","m","true"
"","null","html-keyboard-response","383","2.0.0","356515","p3vxfhd3zr8","bigger","moose","I think the purpose was to measure how people perceive an image's size based on its size in real life.","","<p>Correct!</p>","null","","","","","","",""
"","null","html-keyboard-response","384","2.0.0","357525","p3vxfhd3zr8","bigger","moose","I think the purpose was to measure how people perceive an image's size based on its size in real life.","","<div style=""font-size:60px;"">+</div>","null","","","","","","",""
"","656","image-keyboard-response","385","2.0.0","358183","p3vxfhd3zr8","bigger","moose","I think the purpose was to measure how people perceive an image's size based on its size in real life.","","stimuli/31-Congruent.jpg","z","","","","","left","z","true"
"","null","html-keyboard-response","386","2.0.0","359086","p3vxfhd3zr8","bigger","moose","I think the purpose was to measure how people perceive an image's size based on its size in real life.","","<p>Correct!</p>","null","","","","","","",""
