"success","rt","trial_type","trial_index","plugin_version","time_elapsed","random_id","condition","participant","participant_thoughts","participant_difficulties","stimulus","response","timeout","failed_images","failed_audio","failed_video","correct_response","correct_response_key","correct"
"true","1725","fullscreen","0","null","2739","p49qjge5k3r","smaller"," Beaver","The purpose was to see if I could point out the smaller image without basing it on the actual scale size of the objects shown. ","N/A","","","","","","","","",""
"","1394","html-keyboard-response","1","2.0.0","4137","p49qjge5k3r","smaller"," Beaver","The purpose was to see if I could point out the smaller image without basing it on the actual scale size of the objects shown. ","N/A","Welcome to the Size Stroop experiment. Press any key to begin."," ","","","","","","",""
"","null","html-keyboard-response","2","2.0.0","5155","p49qjge5k3r","smaller"," Beaver","The purpose was to see if I could point out the smaller image without basing it on the actual scale size of the objects shown. ","N/A","This trial will be in fullscreen mode.","null","","","","","","",""
"","4458","survey-text","3","2.0.0","9623","p49qjge5k3r","smaller"," Beaver","The purpose was to see if I could point out the smaller image without basing it on the actual scale size of the objects shown. ","N/A","","{""participant_id"":"" Beaver""}","","","","","","",""
"","14009","html-keyboard-response","4","2.0.0","23634","p49qjge5k3r","smaller"," Beaver","The purpose was to see if I could point out the smaller image without basing it on the actual scale size of the objects shown. ","N/A","<p>In this experiment, two images will appear on the screen. Identify the <strong>smaller</strong> image.</p>
              <p>If the image on the left is smaller, press ""z"". If the image on the right is smaller, press ""m"".</p>
              <p>Press any key to begin.</p>"," ","","","","","","",""
"true","","preload","5","2.0.0","24078","p49qjge5k3r","smaller"," Beaver","The purpose was to see if I could point out the smaller image without basing it on the actual scale size of the objects shown. ","N/A","","","false","[]","[]","[]","","",""
"","null","html-keyboard-response","6","2.0.0","25084","p49qjge5k3r","smaller"," Beaver","The purpose was to see if I could point out the smaller image without basing it on the actual scale size of the objects shown. ","N/A","<div style=""font-size:60px;"">+</div>","null","","","","","","",""
"","2172","image-keyboard-response","7","2.0.0","27264","p49qjge5k3r","smaller"," Beaver","The purpose was to see if I could point out the smaller image without basing it on the actual scale size of the objects shown. ","N/A","stimuli/36-Inongruent.jpg","m","","","","","left","z","false"
"","4729","html-keyboard-response","8","2.0.0","31995","p49qjge5k3r","smaller"," Beaver","The purpose was to see if I could point out the smaller image without basing it on the actual scale size of the objects shown. ","N/A","<p>Incorrect.</p><p>Remember to select the <b>smaller</b> image.</p><p>Continuing in 5 seconds...</p>"," ","","","","","","",""
"","null","html-keyboard-response","9","2.0.0","33013","p49qjge5k3r","smaller"," Beaver","The purpose was to see if I could point out the smaller image without basing it on the actual scale size of the objects shown. ","N/A","<div style=""font-size:60px;"">+</div>","null","","","","","","",""
"","4598","image-keyboard-response","10","2.0.0","37614","p49qjge5k3r","smaller"," Beaver","The purpose was to see if I could point out the smaller image without basing it on the actual scale size of the objects shown. ","N/A","stimuli/19-Congruent.jpg","m","","","","","right","m","true"
"","null","html-keyboard-response","11","2.0.0","38519","p49qjge5k3r","smaller"," Beaver","The purpose was to see if I could point out the smaller image without basing it on the actual scale size of the objects shown. ","N/A","<p>Correct!</p>","null","","","","","","",""
"","null","html-keyboard-response","12","2.0.0","39528","p49qjge5k3r","smaller"," Beaver","The purpose was to see if I could point out the smaller image without basing it on the actual scale size of the objects shown. ","N/A","<div style=""font-size:60px;"">+</div>","null","","","","","","",""
"","2115","image-keyboard-response","13","2.0.0","41645","p49qjge5k3r","smaller"," Beaver","The purpose was to see if I could point out the smaller image without basing it on the actual scale size of the objects shown. ","N/A","stimuli/35-Congruent.jpg","m","","","","","right","m","true"
"","null","html-keyboard-response","14","2.0.0","42550","p49qjge5k3r","smaller"," Beaver","The purpose was to see if I could point out the smaller image without basing it on the actual scale size of the objects shown. ","N/A","<p>Correct!</p>","null","","","","","","",""
"","null","html-keyboard-response","15","2.0.0","43559","p49qjge5k3r","smaller"," Beaver","The purpose was to see if I could point out the smaller image without basing it on the actual scale size of the objects shown. ","N/A","<div style=""font-size:60px;"">+</div>","null","","","","","","",""
"","1051","image-keyboard-response","16","2.0.0","44613","p49qjge5k3r","smaller"," Beaver","The purpose was to see if I could point out the smaller image without basing it on the actual scale size of the objects shown. ","N/A","stimuli/16-Inongruent.jpg","m","","","","","left","z","false"
"","null","html-keyboard-response","17","2.0.0","49617","p49qjge5k3r","smaller"," Beaver","The purpose was to see if I could point out the smaller image without basing it on the actual scale size of the objects shown. ","N/A","<p>Incorrect.</p><p>Remember to select the <b>smaller</b> image.</p><p>Continuing in 5 seconds...</p>","null","","","","","","",""
"","null","html-keyboard-response","18","2.0.0","50624","p49qjge5k3r","smaller"," Beaver","The purpose was to see if I could point out the smaller image without basing it on the actual scale size of the objects shown. ","N/A","<div style=""font-size:60px;"">+</div>","null","","","","","","",""
"","1227","image-keyboard-response","19","2.0.0","51854","p49qjge5k3r","smaller"," Beaver","The purpose was to see if I could point out the smaller image without basing it on the actual scale size of the objects shown. ","N/A","stimuli/11-Inongruent.jpg","m","","","","","left","z","false"
"","null","html-keyboard-response","20","2.0.0","56861","p49qjge5k3r","smaller"," Beaver","The purpose was to see if I could point out the smaller image without basing it on the actual scale size of the objects shown. ","N/A","<p>Incorrect.</p><p>Remember to select the <b>smaller</b> image.</p><p>Continuing in 5 seconds...</p>","null","","","","","","",""
"","null","html-keyboard-response","21","2.0.0","57871","p49qjge5k3r","smaller"," Beaver","The purpose was to see if I could point out the smaller image without basing it on the actual scale size of the objects shown. ","N/A","<div style=""font-size:60px;"">+</div>","null","","","","","","",""
"","1411","image-keyboard-response","22","2.0.0","59284","p49qjge5k3r","smaller"," Beaver","The purpose was to see if I could point out the smaller image without basing it on the actual scale size of the objects shown. ","N/A","stimuli/9-Inongruent.jpg","z","","","","","left","z","true"
"","null","html-keyboard-response","23","2.0.0","60190","p49qjge5k3r","smaller"," Beaver","The purpose was to see if I could point out the smaller image without basing it on the actual scale size of the objects shown. ","N/A","<p>Correct!</p>","null","","","","","","",""
"","null","html-keyboard-response","24","2.0.0","61195","p49qjge5k3r","smaller"," Beaver","The purpose was to see if I could point out the smaller image without basing it on the actual scale size of the objects shown. ","N/A","<div style=""font-size:60px;"">+</div>","null","","","","","","",""
"","1228","image-keyboard-response","25","2.0.0","62424","p49qjge5k3r","smaller"," Beaver","The purpose was to see if I could point out the smaller image without basing it on the actual scale size of the objects shown. ","N/A","stimuli/24-Inongruent.jpg","z","","","","","left","z","true"
"","null","html-keyboard-response","26","2.0.0","63330","p49qjge5k3r","smaller"," Beaver","The purpose was to see if I could point out the smaller image without basing it on the actual scale size of the objects shown. ","N/A","<p>Correct!</p>","null","","","","","","",""
"","null","html-keyboard-response","27","2.0.0","64338","p49qjge5k3r","smaller"," Beaver","The purpose was to see if I could point out the smaller image without basing it on the actual scale size of the objects shown. ","N/A","<div style=""font-size:60px;"">+</div>","null","","","","","","",""
"","834","image-keyboard-response","28","2.0.0","65174","p49qjge5k3r","smaller"," Beaver","The purpose was to see if I could point out the smaller image without basing it on the actual scale size of the objects shown. ","N/A","stimuli/32-Inongruent.jpg","z","","","","","left","z","true"
"","null","html-keyboard-response","29","2.0.0","66078","p49qjge5k3r","smaller"," Beaver","The purpose was to see if I could point out the smaller image without basing it on the actual scale size of the objects shown. ","N/A","<p>Correct!</p>","null","","","","","","",""
"","null","html-keyboard-response","30","2.0.0","67091","p49qjge5k3r","smaller"," Beaver","The purpose was to see if I could point out the smaller image without basing it on the actual scale size of the objects shown. ","N/A","<div style=""font-size:60px;"">+</div>","null","","","","","","",""
"","1262","image-keyboard-response","31","2.0.0","68355","p49qjge5k3r","smaller"," Beaver","The purpose was to see if I could point out the smaller image without basing it on the actual scale size of the objects shown. ","N/A","stimuli/29-Congruent.jpg","m","","","","","right","m","true"
"","null","html-keyboard-response","32","2.0.0","69268","p49qjge5k3r","smaller"," Beaver","The purpose was to see if I could point out the smaller image without basing it on the actual scale size of the objects shown. ","N/A","<p>Correct!</p>","null","","","","","","",""
"","null","html-keyboard-response","33","2.0.0","70274","p49qjge5k3r","smaller"," Beaver","The purpose was to see if I could point out the smaller image without basing it on the actual scale size of the objects shown. ","N/A","<div style=""font-size:60px;"">+</div>","null","","","","","","",""
"","1238","image-keyboard-response","34","2.0.0","71515","p49qjge5k3r","smaller"," Beaver","The purpose was to see if I could point out the smaller image without basing it on the actual scale size of the objects shown. ","N/A","stimuli/36-Congruent.jpg","m","","","","","right","m","true"
"","null","html-keyboard-response","35","2.0.0","72420","p49qjge5k3r","smaller"," Beaver","The purpose was to see if I could point out the smaller image without basing it on the actual scale size of the objects shown. ","N/A","<p>Correct!</p>","null","","","","","","",""
"","null","html-keyboard-response","36","2.0.0","73423","p49qjge5k3r","smaller"," Beaver","The purpose was to see if I could point out the smaller image without basing it on the actual scale size of the objects shown. ","N/A","<div style=""font-size:60px;"">+</div>","null","","","","","","",""
"","1069","image-keyboard-response","37","2.0.0","74495","p49qjge5k3r","smaller"," Beaver","The purpose was to see if I could point out the smaller image without basing it on the actual scale size of the objects shown. ","N/A","stimuli/10-Congruent.jpg","m","","","","","right","m","true"
"","null","html-keyboard-response","38","2.0.0","75397","p49qjge5k3r","smaller"," Beaver","The purpose was to see if I could point out the smaller image without basing it on the actual scale size of the objects shown. ","N/A","<p>Correct!</p>","null","","","","","","",""
"","null","html-keyboard-response","39","2.0.0","76402","p49qjge5k3r","smaller"," Beaver","The purpose was to see if I could point out the smaller image without basing it on the actual scale size of the objects shown. ","N/A","<div style=""font-size:60px;"">+</div>","null","","","","","","",""
"","851","image-keyboard-response","40","2.0.0","77255","p49qjge5k3r","smaller"," Beaver","The purpose was to see if I could point out the smaller image without basing it on the actual scale size of the objects shown. ","N/A","stimuli/24-Inongruent.jpg","z","","","","","left","z","true"
"","null","html-keyboard-response","41","2.0.0","78158","p49qjge5k3r","smaller"," Beaver","The purpose was to see if I could point out the smaller image without basing it on the actual scale size of the objects shown. ","N/A","<p>Correct!</p>","null","","","","","","",""
"","null","html-keyboard-response","42","2.0.0","79171","p49qjge5k3r","smaller"," Beaver","The purpose was to see if I could point out the smaller image without basing it on the actual scale size of the objects shown. ","N/A","<div style=""font-size:60px;"">+</div>","null","","","","","","",""
"","802","image-keyboard-response","43","2.0.0","79974","p49qjge5k3r","smaller"," Beaver","The purpose was to see if I could point out the smaller image without basing it on the actual scale size of the objects shown. ","N/A","stimuli/25-Inongruent.jpg","z","","","","","left","z","true"
"","null","html-keyboard-response","44","2.0.0","80878","p49qjge5k3r","smaller"," Beaver","The purpose was to see if I could point out the smaller image without basing it on the actual scale size of the objects shown. ","N/A","<p>Correct!</p>","null","","","","","","",""
"","null","html-keyboard-response","45","2.0.0","81891","p49qjge5k3r","smaller"," Beaver","The purpose was to see if I could point out the smaller image without basing it on the actual scale size of the objects shown. ","N/A","<div style=""font-size:60px;"">+</div>","null","","","","","","",""
"","721","image-keyboard-response","46","2.0.0","82614","p49qjge5k3r","smaller"," Beaver","The purpose was to see if I could point out the smaller image without basing it on the actual scale size of the objects shown. ","N/A","stimuli/32-Congruent.jpg","m","","","","","right","m","true"
"","null","html-keyboard-response","47","2.0.0","83520","p49qjge5k3r","smaller"," Beaver","The purpose was to see if I could point out the smaller image without basing it on the actual scale size of the objects shown. ","N/A","<p>Correct!</p>","null","","","","","","",""
"","null","html-keyboard-response","48","2.0.0","84530","p49qjge5k3r","smaller"," Beaver","The purpose was to see if I could point out the smaller image without basing it on the actual scale size of the objects shown. ","N/A","<div style=""font-size:60px;"">+</div>","null","","","","","","",""
"","823","image-keyboard-response","49","2.0.0","85355","p49qjge5k3r","smaller"," Beaver","The purpose was to see if I could point out the smaller image without basing it on the actual scale size of the objects shown. ","N/A","stimuli/23-Inongruent.jpg","z","","","","","left","z","true"
"","null","html-keyboard-response","50","2.0.0","86269","p49qjge5k3r","smaller"," Beaver","The purpose was to see if I could point out the smaller image without basing it on the actual scale size of the objects shown. ","N/A","<p>Correct!</p>","null","","","","","","",""
"","null","html-keyboard-response","51","2.0.0","87274","p49qjge5k3r","smaller"," Beaver","The purpose was to see if I could point out the smaller image without basing it on the actual scale size of the objects shown. ","N/A","<div style=""font-size:60px;"">+</div>","null","","","","","","",""
"","1420","image-keyboard-response","52","2.0.0","88697","p49qjge5k3r","smaller"," Beaver","The purpose was to see if I could point out the smaller image without basing it on the actual scale size of the objects shown. ","N/A","stimuli/10-Inongruent.jpg","z","","","","","left","z","true"
"","null","html-keyboard-response","53","2.0.0","89599","p49qjge5k3r","smaller"," Beaver","The purpose was to see if I could point out the smaller image without basing it on the actual scale size of the objects shown. ","N/A","<p>Correct!</p>","null","","","","","","",""
"","null","html-keyboard-response","54","2.0.0","90604","p49qjge5k3r","smaller"," Beaver","The purpose was to see if I could point out the smaller image without basing it on the actual scale size of the objects shown. ","N/A","<div style=""font-size:60px;"">+</div>","null","","","","","","",""
"","918","image-keyboard-response","55","2.0.0","91525","p49qjge5k3r","smaller"," Beaver","The purpose was to see if I could point out the smaller image without basing it on the actual scale size of the objects shown. ","N/A","stimuli/35-Inongruent.jpg","z","","","","","left","z","true"
"","null","html-keyboard-response","56","2.0.0","92430","p49qjge5k3r","smaller"," Beaver","The purpose was to see if I could point out the smaller image without basing it on the actual scale size of the objects shown. ","N/A","<p>Correct!</p>","null","","","","","","",""
"","null","html-keyboard-response","57","2.0.0","93438","p49qjge5k3r","smaller"," Beaver","The purpose was to see if I could point out the smaller image without basing it on the actual scale size of the objects shown. ","N/A","<div style=""font-size:60px;"">+</div>","null","","","","","","",""
"","696","image-keyboard-response","58","2.0.0","94137","p49qjge5k3r","smaller"," Beaver","The purpose was to see if I could point out the smaller image without basing it on the actual scale size of the objects shown. ","N/A","stimuli/23-Congruent.jpg","m","","","","","right","m","true"
"","null","html-keyboard-response","59","2.0.0","95050","p49qjge5k3r","smaller"," Beaver","The purpose was to see if I could point out the smaller image without basing it on the actual scale size of the objects shown. ","N/A","<p>Correct!</p>","null","","","","","","",""
"","null","html-keyboard-response","60","2.0.0","96056","p49qjge5k3r","smaller"," Beaver","The purpose was to see if I could point out the smaller image without basing it on the actual scale size of the objects shown. ","N/A","<div style=""font-size:60px;"">+</div>","null","","","","","","",""
"","758","image-keyboard-response","61","2.0.0","96816","p49qjge5k3r","smaller"," Beaver","The purpose was to see if I could point out the smaller image without basing it on the actual scale size of the objects shown. ","N/A","stimuli/21-Congruent.jpg","m","","","","","right","m","true"
"","null","html-keyboard-response","62","2.0.0","97721","p49qjge5k3r","smaller"," Beaver","The purpose was to see if I could point out the smaller image without basing it on the actual scale size of the objects shown. ","N/A","<p>Correct!</p>","null","","","","","","",""
"","null","html-keyboard-response","63","2.0.0","98726","p49qjge5k3r","smaller"," Beaver","The purpose was to see if I could point out the smaller image without basing it on the actual scale size of the objects shown. ","N/A","<div style=""font-size:60px;"">+</div>","null","","","","","","",""
"","857","image-keyboard-response","64","2.0.0","99586","p49qjge5k3r","smaller"," Beaver","The purpose was to see if I could point out the smaller image without basing it on the actual scale size of the objects shown. ","N/A","stimuli/29-Inongruent.jpg","z","","","","","left","z","true"
"","null","html-keyboard-response","65","2.0.0","100488","p49qjge5k3r","smaller"," Beaver","The purpose was to see if I could point out the smaller image without basing it on the actual scale size of the objects shown. ","N/A","<p>Correct!</p>","null","","","","","","",""
"","null","html-keyboard-response","66","2.0.0","101499","p49qjge5k3r","smaller"," Beaver","The purpose was to see if I could point out the smaller image without basing it on the actual scale size of the objects shown. ","N/A","<div style=""font-size:60px;"">+</div>","null","","","","","","",""
"","724","image-keyboard-response","67","2.0.0","102225","p49qjge5k3r","smaller"," Beaver","The purpose was to see if I could point out the smaller image without basing it on the actual scale size of the objects shown. ","N/A","stimuli/1-Congruent.jpg","m","","","","","right","m","true"
"","null","html-keyboard-response","68","2.0.0","103138","p49qjge5k3r","smaller"," Beaver","The purpose was to see if I could point out the smaller image without basing it on the actual scale size of the objects shown. ","N/A","<p>Correct!</p>","null","","","","","","",""
"","null","html-keyboard-response","69","2.0.0","104151","p49qjge5k3r","smaller"," Beaver","The purpose was to see if I could point out the smaller image without basing it on the actual scale size of the objects shown. ","N/A","<div style=""font-size:60px;"">+</div>","null","","","","","","",""
"","610","image-keyboard-response","70","2.0.0","104763","p49qjge5k3r","smaller"," Beaver","The purpose was to see if I could point out the smaller image without basing it on the actual scale size of the objects shown. ","N/A","stimuli/18-Congruent.jpg","m","","","","","right","m","true"
"","null","html-keyboard-response","71","2.0.0","105666","p49qjge5k3r","smaller"," Beaver","The purpose was to see if I could point out the smaller image without basing it on the actual scale size of the objects shown. ","N/A","<p>Correct!</p>","null","","","","","","",""
"","null","html-keyboard-response","72","2.0.0","106673","p49qjge5k3r","smaller"," Beaver","The purpose was to see if I could point out the smaller image without basing it on the actual scale size of the objects shown. ","N/A","<div style=""font-size:60px;"">+</div>","null","","","","","","",""
"","639","image-keyboard-response","73","2.0.0","107315","p49qjge5k3r","smaller"," Beaver","The purpose was to see if I could point out the smaller image without basing it on the actual scale size of the objects shown. ","N/A","stimuli/30-Inongruent.jpg","z","","","","","left","z","true"
"","null","html-keyboard-response","74","2.0.0","108223","p49qjge5k3r","smaller"," Beaver","The purpose was to see if I could point out the smaller image without basing it on the actual scale size of the objects shown. ","N/A","<p>Correct!</p>","null","","","","","","",""
"","null","html-keyboard-response","75","2.0.0","109228","p49qjge5k3r","smaller"," Beaver","The purpose was to see if I could point out the smaller image without basing it on the actual scale size of the objects shown. ","N/A","<div style=""font-size:60px;"">+</div>","null","","","","","","",""
"","575","image-keyboard-response","76","2.0.0","109805","p49qjge5k3r","smaller"," Beaver","The purpose was to see if I could point out the smaller image without basing it on the actual scale size of the objects shown. ","N/A","stimuli/30-Congruent.jpg","m","","","","","right","m","true"
"","null","html-keyboard-response","77","2.0.0","110714","p49qjge5k3r","smaller"," Beaver","The purpose was to see if I could point out the smaller image without basing it on the actual scale size of the objects shown. ","N/A","<p>Correct!</p>","null","","","","","","",""
"","null","html-keyboard-response","78","2.0.0","111730","p49qjge5k3r","smaller"," Beaver","The purpose was to see if I could point out the smaller image without basing it on the actual scale size of the objects shown. ","N/A","<div style=""font-size:60px;"">+</div>","null","","","","","","",""
"","640","image-keyboard-response","79","2.0.0","112372","p49qjge5k3r","smaller"," Beaver","The purpose was to see if I could point out the smaller image without basing it on the actual scale size of the objects shown. ","N/A","stimuli/31-Inongruent.jpg","z","","","","","left","z","true"
"","null","html-keyboard-response","80","2.0.0","113280","p49qjge5k3r","smaller"," Beaver","The purpose was to see if I could point out the smaller image without basing it on the actual scale size of the objects shown. ","N/A","<p>Correct!</p>","null","","","","","","",""
"","null","html-keyboard-response","81","2.0.0","114285","p49qjge5k3r","smaller"," Beaver","The purpose was to see if I could point out the smaller image without basing it on the actual scale size of the objects shown. ","N/A","<div style=""font-size:60px;"">+</div>","null","","","","","","",""
"","647","image-keyboard-response","82","2.0.0","114934","p49qjge5k3r","smaller"," Beaver","The purpose was to see if I could point out the smaller image without basing it on the actual scale size of the objects shown. ","N/A","stimuli/16-Inongruent.jpg","z","","","","","left","z","true"
"","null","html-keyboard-response","83","2.0.0","115840","p49qjge5k3r","smaller"," Beaver","The purpose was to see if I could point out the smaller image without basing it on the actual scale size of the objects shown. ","N/A","<p>Correct!</p>","null","","","","","","",""
"","null","html-keyboard-response","84","2.0.0","116851","p49qjge5k3r","smaller"," Beaver","The purpose was to see if I could point out the smaller image without basing it on the actual scale size of the objects shown. ","N/A","<div style=""font-size:60px;"">+</div>","null","","","","","","",""
"","602","image-keyboard-response","85","2.0.0","117455","p49qjge5k3r","smaller"," Beaver","The purpose was to see if I could point out the smaller image without basing it on the actual scale size of the objects shown. ","N/A","stimuli/5-Congruent.jpg","m","","","","","right","m","true"
"","null","html-keyboard-response","86","2.0.0","118367","p49qjge5k3r","smaller"," Beaver","The purpose was to see if I could point out the smaller image without basing it on the actual scale size of the objects shown. ","N/A","<p>Correct!</p>","null","","","","","","",""
"","null","html-keyboard-response","87","2.0.0","119370","p49qjge5k3r","smaller"," Beaver","The purpose was to see if I could point out the smaller image without basing it on the actual scale size of the objects shown. ","N/A","<div style=""font-size:60px;"">+</div>","null","","","","","","",""
"","804","image-keyboard-response","88","2.0.0","120176","p49qjge5k3r","smaller"," Beaver","The purpose was to see if I could point out the smaller image without basing it on the actual scale size of the objects shown. ","N/A","stimuli/12-Inongruent.jpg","z","","","","","left","z","true"
"","null","html-keyboard-response","89","2.0.0","121086","p49qjge5k3r","smaller"," Beaver","The purpose was to see if I could point out the smaller image without basing it on the actual scale size of the objects shown. ","N/A","<p>Correct!</p>","null","","","","","","",""
"","null","html-keyboard-response","90","2.0.0","122089","p49qjge5k3r","smaller"," Beaver","The purpose was to see if I could point out the smaller image without basing it on the actual scale size of the objects shown. ","N/A","<div style=""font-size:60px;"">+</div>","null","","","","","","",""
"","626","image-keyboard-response","91","2.0.0","122717","p49qjge5k3r","smaller"," Beaver","The purpose was to see if I could point out the smaller image without basing it on the actual scale size of the objects shown. ","N/A","stimuli/15-Inongruent.jpg","z","","","","","left","z","true"
"","null","html-keyboard-response","92","2.0.0","123621","p49qjge5k3r","smaller"," Beaver","The purpose was to see if I could point out the smaller image without basing it on the actual scale size of the objects shown. ","N/A","<p>Correct!</p>","null","","","","","","",""
"","null","html-keyboard-response","93","2.0.0","124633","p49qjge5k3r","smaller"," Beaver","The purpose was to see if I could point out the smaller image without basing it on the actual scale size of the objects shown. ","N/A","<div style=""font-size:60px;"">+</div>","null","","","","","","",""
"","652","image-keyboard-response","94","2.0.0","125288","p49qjge5k3r","smaller"," Beaver","The purpose was to see if I could point out the smaller image without basing it on the actual scale size of the objects shown. ","N/A","stimuli/14-Inongruent.jpg","z","","","","","left","z","true"
"","null","html-keyboard-response","95","2.0.0","126196","p49qjge5k3r","smaller"," Beaver","The purpose was to see if I could point out the smaller image without basing it on the actual scale size of the objects shown. ","N/A","<p>Correct!</p>","null","","","","","","",""
"","null","html-keyboard-response","96","2.0.0","127208","p49qjge5k3r","smaller"," Beaver","The purpose was to see if I could point out the smaller image without basing it on the actual scale size of the objects shown. ","N/A","<div style=""font-size:60px;"">+</div>","null","","","","","","",""
"","646","image-keyboard-response","97","2.0.0","127856","p49qjge5k3r","smaller"," Beaver","The purpose was to see if I could point out the smaller image without basing it on the actual scale size of the objects shown. ","N/A","stimuli/11-Congruent.jpg","m","","","","","right","m","true"
"","null","html-keyboard-response","98","2.0.0","128771","p49qjge5k3r","smaller"," Beaver","The purpose was to see if I could point out the smaller image without basing it on the actual scale size of the objects shown. ","N/A","<p>Correct!</p>","null","","","","","","",""
"","null","html-keyboard-response","99","2.0.0","129776","p49qjge5k3r","smaller"," Beaver","The purpose was to see if I could point out the smaller image without basing it on the actual scale size of the objects shown. ","N/A","<div style=""font-size:60px;"">+</div>","null","","","","","","",""
"","577","image-keyboard-response","100","2.0.0","130355","p49qjge5k3r","smaller"," Beaver","The purpose was to see if I could point out the smaller image without basing it on the actual scale size of the objects shown. ","N/A","stimuli/19-Inongruent.jpg","z","","","","","left","z","true"
"","null","html-keyboard-response","101","2.0.0","131260","p49qjge5k3r","smaller"," Beaver","The purpose was to see if I could point out the smaller image without basing it on the actual scale size of the objects shown. ","N/A","<p>Correct!</p>","null","","","","","","",""
"","null","html-keyboard-response","102","2.0.0","132270","p49qjge5k3r","smaller"," Beaver","The purpose was to see if I could point out the smaller image without basing it on the actual scale size of the objects shown. ","N/A","<div style=""font-size:60px;"">+</div>","null","","","","","","",""
"","603","image-keyboard-response","103","2.0.0","132876","p49qjge5k3r","smaller"," Beaver","The purpose was to see if I could point out the smaller image without basing it on the actual scale size of the objects shown. ","N/A","stimuli/2-Congruent.jpg","m","","","","","right","m","true"
"","null","html-keyboard-response","104","2.0.0","133782","p49qjge5k3r","smaller"," Beaver","The purpose was to see if I could point out the smaller image without basing it on the actual scale size of the objects shown. ","N/A","<p>Correct!</p>","null","","","","","","",""
"","null","html-keyboard-response","105","2.0.0","134799","p49qjge5k3r","smaller"," Beaver","The purpose was to see if I could point out the smaller image without basing it on the actual scale size of the objects shown. ","N/A","<div style=""font-size:60px;"">+</div>","null","","","","","","",""
"","624","image-keyboard-response","106","2.0.0","135425","p49qjge5k3r","smaller"," Beaver","The purpose was to see if I could point out the smaller image without basing it on the actual scale size of the objects shown. ","N/A","stimuli/17-Inongruent.jpg","z","","","","","left","z","true"
"","null","html-keyboard-response","107","2.0.0","136329","p49qjge5k3r","smaller"," Beaver","The purpose was to see if I could point out the smaller image without basing it on the actual scale size of the objects shown. ","N/A","<p>Correct!</p>","null","","","","","","",""
"","null","html-keyboard-response","108","2.0.0","137339","p49qjge5k3r","smaller"," Beaver","The purpose was to see if I could point out the smaller image without basing it on the actual scale size of the objects shown. ","N/A","<div style=""font-size:60px;"">+</div>","null","","","","","","",""
"","584","image-keyboard-response","109","2.0.0","137926","p49qjge5k3r","smaller"," Beaver","The purpose was to see if I could point out the smaller image without basing it on the actual scale size of the objects shown. ","N/A","stimuli/7-Inongruent.jpg","z","","","","","left","z","true"
"","null","html-keyboard-response","110","2.0.0","138831","p49qjge5k3r","smaller"," Beaver","The purpose was to see if I could point out the smaller image without basing it on the actual scale size of the objects shown. ","N/A","<p>Correct!</p>","null","","","","","","",""
"","null","html-keyboard-response","111","2.0.0","139839","p49qjge5k3r","smaller"," Beaver","The purpose was to see if I could point out the smaller image without basing it on the actual scale size of the objects shown. ","N/A","<div style=""font-size:60px;"">+</div>","null","","","","","","",""
"","1103","image-keyboard-response","112","2.0.0","140945","p49qjge5k3r","smaller"," Beaver","The purpose was to see if I could point out the smaller image without basing it on the actual scale size of the objects shown. ","N/A","stimuli/21-Inongruent.jpg","z","","","","","left","z","true"
"","null","html-keyboard-response","113","2.0.0","141847","p49qjge5k3r","smaller"," Beaver","The purpose was to see if I could point out the smaller image without basing it on the actual scale size of the objects shown. ","N/A","<p>Correct!</p>","null","","","","","","",""
"","null","html-keyboard-response","114","2.0.0","142856","p49qjge5k3r","smaller"," Beaver","The purpose was to see if I could point out the smaller image without basing it on the actual scale size of the objects shown. ","N/A","<div style=""font-size:60px;"">+</div>","null","","","","","","",""
"","847","image-keyboard-response","115","2.0.0","143705","p49qjge5k3r","smaller"," Beaver","The purpose was to see if I could point out the smaller image without basing it on the actual scale size of the objects shown. ","N/A","stimuli/27-Inongruent.jpg","z","","","","","left","z","true"
"","null","html-keyboard-response","116","2.0.0","144607","p49qjge5k3r","smaller"," Beaver","The purpose was to see if I could point out the smaller image without basing it on the actual scale size of the objects shown. ","N/A","<p>Correct!</p>","null","","","","","","",""
"","null","html-keyboard-response","117","2.0.0","145615","p49qjge5k3r","smaller"," Beaver","The purpose was to see if I could point out the smaller image without basing it on the actual scale size of the objects shown. ","N/A","<div style=""font-size:60px;"">+</div>","null","","","","","","",""
"","708","image-keyboard-response","118","2.0.0","146325","p49qjge5k3r","smaller"," Beaver","The purpose was to see if I could point out the smaller image without basing it on the actual scale size of the objects shown. ","N/A","stimuli/36-Inongruent.jpg","z","","","","","left","z","true"
"","null","html-keyboard-response","119","2.0.0","147236","p49qjge5k3r","smaller"," Beaver","The purpose was to see if I could point out the smaller image without basing it on the actual scale size of the objects shown. ","N/A","<p>Correct!</p>","null","","","","","","",""
"","null","html-keyboard-response","120","2.0.0","148240","p49qjge5k3r","smaller"," Beaver","The purpose was to see if I could point out the smaller image without basing it on the actual scale size of the objects shown. ","N/A","<div style=""font-size:60px;"">+</div>","null","","","","","","",""
"","663","image-keyboard-response","121","2.0.0","148906","p49qjge5k3r","smaller"," Beaver","The purpose was to see if I could point out the smaller image without basing it on the actual scale size of the objects shown. ","N/A","stimuli/31-Congruent.jpg","m","","","","","right","m","true"
"","null","html-keyboard-response","122","2.0.0","149814","p49qjge5k3r","smaller"," Beaver","The purpose was to see if I could point out the smaller image without basing it on the actual scale size of the objects shown. ","N/A","<p>Correct!</p>","null","","","","","","",""
"","null","html-keyboard-response","123","2.0.0","150819","p49qjge5k3r","smaller"," Beaver","The purpose was to see if I could point out the smaller image without basing it on the actual scale size of the objects shown. ","N/A","<div style=""font-size:60px;"">+</div>","null","","","","","","",""
"","736","image-keyboard-response","124","2.0.0","151556","p49qjge5k3r","smaller"," Beaver","The purpose was to see if I could point out the smaller image without basing it on the actual scale size of the objects shown. ","N/A","stimuli/4-Inongruent.jpg","z","","","","","left","z","true"
"","null","html-keyboard-response","125","2.0.0","152462","p49qjge5k3r","smaller"," Beaver","The purpose was to see if I could point out the smaller image without basing it on the actual scale size of the objects shown. ","N/A","<p>Correct!</p>","null","","","","","","",""
"","null","html-keyboard-response","126","2.0.0","153464","p49qjge5k3r","smaller"," Beaver","The purpose was to see if I could point out the smaller image without basing it on the actual scale size of the objects shown. ","N/A","<div style=""font-size:60px;"">+</div>","null","","","","","","",""
"","620","image-keyboard-response","127","2.0.0","154087","p49qjge5k3r","smaller"," Beaver","The purpose was to see if I could point out the smaller image without basing it on the actual scale size of the objects shown. ","N/A","stimuli/6-Inongruent.jpg","z","","","","","left","z","true"
"","null","html-keyboard-response","128","2.0.0","154992","p49qjge5k3r","smaller"," Beaver","The purpose was to see if I could point out the smaller image without basing it on the actual scale size of the objects shown. ","N/A","<p>Correct!</p>","null","","","","","","",""
"","null","html-keyboard-response","129","2.0.0","156000","p49qjge5k3r","smaller"," Beaver","The purpose was to see if I could point out the smaller image without basing it on the actual scale size of the objects shown. ","N/A","<div style=""font-size:60px;"">+</div>","null","","","","","","",""
"","893","image-keyboard-response","130","2.0.0","156895","p49qjge5k3r","smaller"," Beaver","The purpose was to see if I could point out the smaller image without basing it on the actual scale size of the objects shown. ","N/A","stimuli/6-Congruent.jpg","m","","","","","right","m","true"
"","null","html-keyboard-response","131","2.0.0","157805","p49qjge5k3r","smaller"," Beaver","The purpose was to see if I could point out the smaller image without basing it on the actual scale size of the objects shown. ","N/A","<p>Correct!</p>","null","","","","","","",""
"","null","html-keyboard-response","132","2.0.0","158807","p49qjge5k3r","smaller"," Beaver","The purpose was to see if I could point out the smaller image without basing it on the actual scale size of the objects shown. ","N/A","<div style=""font-size:60px;"">+</div>","null","","","","","","",""
"","657","image-keyboard-response","133","2.0.0","159466","p49qjge5k3r","smaller"," Beaver","The purpose was to see if I could point out the smaller image without basing it on the actual scale size of the objects shown. ","N/A","stimuli/14-Inongruent.jpg","z","","","","","left","z","true"
"","null","html-keyboard-response","134","2.0.0","160370","p49qjge5k3r","smaller"," Beaver","The purpose was to see if I could point out the smaller image without basing it on the actual scale size of the objects shown. ","N/A","<p>Correct!</p>","null","","","","","","",""
"","null","html-keyboard-response","135","2.0.0","161380","p49qjge5k3r","smaller"," Beaver","The purpose was to see if I could point out the smaller image without basing it on the actual scale size of the objects shown. ","N/A","<div style=""font-size:60px;"">+</div>","null","","","","","","",""
"","694","image-keyboard-response","136","2.0.0","162076","p49qjge5k3r","smaller"," Beaver","The purpose was to see if I could point out the smaller image without basing it on the actual scale size of the objects shown. ","N/A","stimuli/11-Inongruent.jpg","z","","","","","left","z","true"
"","null","html-keyboard-response","137","2.0.0","162987","p49qjge5k3r","smaller"," Beaver","The purpose was to see if I could point out the smaller image without basing it on the actual scale size of the objects shown. ","N/A","<p>Correct!</p>","null","","","","","","",""
"","null","html-keyboard-response","138","2.0.0","163990","p49qjge5k3r","smaller"," Beaver","The purpose was to see if I could point out the smaller image without basing it on the actual scale size of the objects shown. ","N/A","<div style=""font-size:60px;"">+</div>","null","","","","","","",""
"","873","image-keyboard-response","139","2.0.0","164865","p49qjge5k3r","smaller"," Beaver","The purpose was to see if I could point out the smaller image without basing it on the actual scale size of the objects shown. ","N/A","stimuli/21-Inongruent.jpg","z","","","","","left","z","true"
"","null","html-keyboard-response","140","2.0.0","165778","p49qjge5k3r","smaller"," Beaver","The purpose was to see if I could point out the smaller image without basing it on the actual scale size of the objects shown. ","N/A","<p>Correct!</p>","null","","","","","","",""
"","null","html-keyboard-response","141","2.0.0","166784","p49qjge5k3r","smaller"," Beaver","The purpose was to see if I could point out the smaller image without basing it on the actual scale size of the objects shown. ","N/A","<div style=""font-size:60px;"">+</div>","null","","","","","","",""
"","628","image-keyboard-response","142","2.0.0","167414","p49qjge5k3r","smaller"," Beaver","The purpose was to see if I could point out the smaller image without basing it on the actual scale size of the objects shown. ","N/A","stimuli/17-Congruent.jpg","m","","","","","right","m","true"
"","null","html-keyboard-response","143","2.0.0","168321","p49qjge5k3r","smaller"," Beaver","The purpose was to see if I could point out the smaller image without basing it on the actual scale size of the objects shown. ","N/A","<p>Correct!</p>","null","","","","","","",""
"","null","html-keyboard-response","144","2.0.0","169333","p49qjge5k3r","smaller"," Beaver","The purpose was to see if I could point out the smaller image without basing it on the actual scale size of the objects shown. ","N/A","<div style=""font-size:60px;"">+</div>","null","","","","","","",""
"","581","image-keyboard-response","145","2.0.0","169916","p49qjge5k3r","smaller"," Beaver","The purpose was to see if I could point out the smaller image without basing it on the actual scale size of the objects shown. ","N/A","stimuli/4-Inongruent.jpg","z","","","","","left","z","true"
"","null","html-keyboard-response","146","2.0.0","170821","p49qjge5k3r","smaller"," Beaver","The purpose was to see if I could point out the smaller image without basing it on the actual scale size of the objects shown. ","N/A","<p>Correct!</p>","null","","","","","","",""
"","null","html-keyboard-response","147","2.0.0","171824","p49qjge5k3r","smaller"," Beaver","The purpose was to see if I could point out the smaller image without basing it on the actual scale size of the objects shown. ","N/A","<div style=""font-size:60px;"">+</div>","null","","","","","","",""
"","569","image-keyboard-response","148","2.0.0","172396","p49qjge5k3r","smaller"," Beaver","The purpose was to see if I could point out the smaller image without basing it on the actual scale size of the objects shown. ","N/A","stimuli/15-Congruent.jpg","m","","","","","right","m","true"
"","null","html-keyboard-response","149","2.0.0","173300","p49qjge5k3r","smaller"," Beaver","The purpose was to see if I could point out the smaller image without basing it on the actual scale size of the objects shown. ","N/A","<p>Correct!</p>","null","","","","","","",""
"","null","html-keyboard-response","150","2.0.0","174303","p49qjge5k3r","smaller"," Beaver","The purpose was to see if I could point out the smaller image without basing it on the actual scale size of the objects shown. ","N/A","<div style=""font-size:60px;"">+</div>","null","","","","","","",""
"","769","image-keyboard-response","151","2.0.0","175074","p49qjge5k3r","smaller"," Beaver","The purpose was to see if I could point out the smaller image without basing it on the actual scale size of the objects shown. ","N/A","stimuli/15-Inongruent.jpg","z","","","","","left","z","true"
"","null","html-keyboard-response","152","2.0.0","175987","p49qjge5k3r","smaller"," Beaver","The purpose was to see if I could point out the smaller image without basing it on the actual scale size of the objects shown. ","N/A","<p>Correct!</p>","null","","","","","","",""
"","null","html-keyboard-response","153","2.0.0","176991","p49qjge5k3r","smaller"," Beaver","The purpose was to see if I could point out the smaller image without basing it on the actual scale size of the objects shown. ","N/A","<div style=""font-size:60px;"">+</div>","null","","","","","","",""
"","592","image-keyboard-response","154","2.0.0","177585","p49qjge5k3r","smaller"," Beaver","The purpose was to see if I could point out the smaller image without basing it on the actual scale size of the objects shown. ","N/A","stimuli/33-Congruent.jpg","m","","","","","right","m","true"
"","null","html-keyboard-response","155","2.0.0","178496","p49qjge5k3r","smaller"," Beaver","The purpose was to see if I could point out the smaller image without basing it on the actual scale size of the objects shown. ","N/A","<p>Correct!</p>","null","","","","","","",""
"","null","html-keyboard-response","156","2.0.0","179499","p49qjge5k3r","smaller"," Beaver","The purpose was to see if I could point out the smaller image without basing it on the actual scale size of the objects shown. ","N/A","<div style=""font-size:60px;"">+</div>","null","","","","","","",""
"","576","image-keyboard-response","157","2.0.0","180076","p49qjge5k3r","smaller"," Beaver","The purpose was to see if I could point out the smaller image without basing it on the actual scale size of the objects shown. ","N/A","stimuli/5-Congruent.jpg","m","","","","","right","m","true"
"","null","html-keyboard-response","158","2.0.0","180987","p49qjge5k3r","smaller"," Beaver","The purpose was to see if I could point out the smaller image without basing it on the actual scale size of the objects shown. ","N/A","<p>Correct!</p>","null","","","","","","",""
"","null","html-keyboard-response","159","2.0.0","181994","p49qjge5k3r","smaller"," Beaver","The purpose was to see if I could point out the smaller image without basing it on the actual scale size of the objects shown. ","N/A","<div style=""font-size:60px;"">+</div>","null","","","","","","",""
"","719","image-keyboard-response","160","2.0.0","182715","p49qjge5k3r","smaller"," Beaver","The purpose was to see if I could point out the smaller image without basing it on the actual scale size of the objects shown. ","N/A","stimuli/1-Inongruent.jpg","z","","","","","left","z","true"
"","null","html-keyboard-response","161","2.0.0","183620","p49qjge5k3r","smaller"," Beaver","The purpose was to see if I could point out the smaller image without basing it on the actual scale size of the objects shown. ","N/A","<p>Correct!</p>","null","","","","","","",""
"","null","html-keyboard-response","162","2.0.0","184631","p49qjge5k3r","smaller"," Beaver","The purpose was to see if I could point out the smaller image without basing it on the actual scale size of the objects shown. ","N/A","<div style=""font-size:60px;"">+</div>","null","","","","","","",""
"","683","image-keyboard-response","163","2.0.0","185315","p49qjge5k3r","smaller"," Beaver","The purpose was to see if I could point out the smaller image without basing it on the actual scale size of the objects shown. ","N/A","stimuli/9-Inongruent.jpg","z","","","","","left","z","true"
"","null","html-keyboard-response","164","2.0.0","186220","p49qjge5k3r","smaller"," Beaver","The purpose was to see if I could point out the smaller image without basing it on the actual scale size of the objects shown. ","N/A","<p>Correct!</p>","null","","","","","","",""
"","null","html-keyboard-response","165","2.0.0","187233","p49qjge5k3r","smaller"," Beaver","The purpose was to see if I could point out the smaller image without basing it on the actual scale size of the objects shown. ","N/A","<div style=""font-size:60px;"">+</div>","null","","","","","","",""
"","781","image-keyboard-response","166","2.0.0","188016","p49qjge5k3r","smaller"," Beaver","The purpose was to see if I could point out the smaller image without basing it on the actual scale size of the objects shown. ","N/A","stimuli/12-Inongruent.jpg","z","","","","","left","z","true"
"","null","html-keyboard-response","167","2.0.0","188924","p49qjge5k3r","smaller"," Beaver","The purpose was to see if I could point out the smaller image without basing it on the actual scale size of the objects shown. ","N/A","<p>Correct!</p>","null","","","","","","",""
"","null","html-keyboard-response","168","2.0.0","189928","p49qjge5k3r","smaller"," Beaver","The purpose was to see if I could point out the smaller image without basing it on the actual scale size of the objects shown. ","N/A","<div style=""font-size:60px;"">+</div>","null","","","","","","",""
"","596","image-keyboard-response","169","2.0.0","190527","p49qjge5k3r","smaller"," Beaver","The purpose was to see if I could point out the smaller image without basing it on the actual scale size of the objects shown. ","N/A","stimuli/12-Congruent.jpg","m","","","","","right","m","true"
"","null","html-keyboard-response","170","2.0.0","191444","p49qjge5k3r","smaller"," Beaver","The purpose was to see if I could point out the smaller image without basing it on the actual scale size of the objects shown. ","N/A","<p>Correct!</p>","null","","","","","","",""
"","null","html-keyboard-response","171","2.0.0","192454","p49qjge5k3r","smaller"," Beaver","The purpose was to see if I could point out the smaller image without basing it on the actual scale size of the objects shown. ","N/A","<div style=""font-size:60px;"">+</div>","null","","","","","","",""
"","552","image-keyboard-response","172","2.0.0","193008","p49qjge5k3r","smaller"," Beaver","The purpose was to see if I could point out the smaller image without basing it on the actual scale size of the objects shown. ","N/A","stimuli/5-Inongruent.jpg","z","","","","","left","z","true"
"","null","html-keyboard-response","173","2.0.0","193915","p49qjge5k3r","smaller"," Beaver","The purpose was to see if I could point out the smaller image without basing it on the actual scale size of the objects shown. ","N/A","<p>Correct!</p>","null","","","","","","",""
"","null","html-keyboard-response","174","2.0.0","194929","p49qjge5k3r","smaller"," Beaver","The purpose was to see if I could point out the smaller image without basing it on the actual scale size of the objects shown. ","N/A","<div style=""font-size:60px;"">+</div>","null","","","","","","",""
"","595","image-keyboard-response","175","2.0.0","195527","p49qjge5k3r","smaller"," Beaver","The purpose was to see if I could point out the smaller image without basing it on the actual scale size of the objects shown. ","N/A","stimuli/34-Congruent.jpg","m","","","","","right","m","true"
"","null","html-keyboard-response","176","2.0.0","196429","p49qjge5k3r","smaller"," Beaver","The purpose was to see if I could point out the smaller image without basing it on the actual scale size of the objects shown. ","N/A","<p>Correct!</p>","null","","","","","","",""
"","null","html-keyboard-response","177","2.0.0","197435","p49qjge5k3r","smaller"," Beaver","The purpose was to see if I could point out the smaller image without basing it on the actual scale size of the objects shown. ","N/A","<div style=""font-size:60px;"">+</div>","null","","","","","","",""
"","579","image-keyboard-response","178","2.0.0","198016","p49qjge5k3r","smaller"," Beaver","The purpose was to see if I could point out the smaller image without basing it on the actual scale size of the objects shown. ","N/A","stimuli/7-Congruent.jpg","m","","","","","right","m","true"
"","null","html-keyboard-response","179","2.0.0","198920","p49qjge5k3r","smaller"," Beaver","The purpose was to see if I could point out the smaller image without basing it on the actual scale size of the objects shown. ","N/A","<p>Correct!</p>","null","","","","","","",""
"","null","html-keyboard-response","180","2.0.0","199923","p49qjge5k3r","smaller"," Beaver","The purpose was to see if I could point out the smaller image without basing it on the actual scale size of the objects shown. ","N/A","<div style=""font-size:60px;"">+</div>","null","","","","","","",""
"","962","image-keyboard-response","181","2.0.0","200887","p49qjge5k3r","smaller"," Beaver","The purpose was to see if I could point out the smaller image without basing it on the actual scale size of the objects shown. ","N/A","stimuli/7-Inongruent.jpg","z","","","","","left","z","true"
"","null","html-keyboard-response","182","2.0.0","201798","p49qjge5k3r","smaller"," Beaver","The purpose was to see if I could point out the smaller image without basing it on the actual scale size of the objects shown. ","N/A","<p>Correct!</p>","null","","","","","","",""
"","null","html-keyboard-response","183","2.0.0","202810","p49qjge5k3r","smaller"," Beaver","The purpose was to see if I could point out the smaller image without basing it on the actual scale size of the objects shown. ","N/A","<div style=""font-size:60px;"">+</div>","null","","","","","","",""
"","744","image-keyboard-response","184","2.0.0","203555","p49qjge5k3r","smaller"," Beaver","The purpose was to see if I could point out the smaller image without basing it on the actual scale size of the objects shown. ","N/A","stimuli/27-Inongruent.jpg","z","","","","","left","z","true"
"","null","html-keyboard-response","185","2.0.0","204458","p49qjge5k3r","smaller"," Beaver","The purpose was to see if I could point out the smaller image without basing it on the actual scale size of the objects shown. ","N/A","<p>Correct!</p>","null","","","","","","",""
"","null","html-keyboard-response","186","2.0.0","205465","p49qjge5k3r","smaller"," Beaver","The purpose was to see if I could point out the smaller image without basing it on the actual scale size of the objects shown. ","N/A","<div style=""font-size:60px;"">+</div>","null","","","","","","",""
"","799","image-keyboard-response","187","2.0.0","206266","p49qjge5k3r","smaller"," Beaver","The purpose was to see if I could point out the smaller image without basing it on the actual scale size of the objects shown. ","N/A","stimuli/22-Congruent.jpg","m","","","","","right","m","true"
"","null","html-keyboard-response","188","2.0.0","207175","p49qjge5k3r","smaller"," Beaver","The purpose was to see if I could point out the smaller image without basing it on the actual scale size of the objects shown. ","N/A","<p>Correct!</p>","null","","","","","","",""
"","null","html-keyboard-response","189","2.0.0","208190","p49qjge5k3r","smaller"," Beaver","The purpose was to see if I could point out the smaller image without basing it on the actual scale size of the objects shown. ","N/A","<div style=""font-size:60px;"">+</div>","null","","","","","","",""
"","544","image-keyboard-response","190","2.0.0","208736","p49qjge5k3r","smaller"," Beaver","The purpose was to see if I could point out the smaller image without basing it on the actual scale size of the objects shown. ","N/A","stimuli/29-Congruent.jpg","m","","","","","right","m","true"
"","null","html-keyboard-response","191","2.0.0","209639","p49qjge5k3r","smaller"," Beaver","The purpose was to see if I could point out the smaller image without basing it on the actual scale size of the objects shown. ","N/A","<p>Correct!</p>","null","","","","","","",""
"","null","html-keyboard-response","192","2.0.0","210648","p49qjge5k3r","smaller"," Beaver","The purpose was to see if I could point out the smaller image without basing it on the actual scale size of the objects shown. ","N/A","<div style=""font-size:60px;"">+</div>","null","","","","","","",""
"","577","image-keyboard-response","193","2.0.0","211226","p49qjge5k3r","smaller"," Beaver","The purpose was to see if I could point out the smaller image without basing it on the actual scale size of the objects shown. ","N/A","stimuli/25-Inongruent.jpg","z","","","","","left","z","true"
"","null","html-keyboard-response","194","2.0.0","212130","p49qjge5k3r","smaller"," Beaver","The purpose was to see if I could point out the smaller image without basing it on the actual scale size of the objects shown. ","N/A","<p>Correct!</p>","null","","","","","","",""
"","null","html-keyboard-response","195","2.0.0","213137","p49qjge5k3r","smaller"," Beaver","The purpose was to see if I could point out the smaller image without basing it on the actual scale size of the objects shown. ","N/A","<div style=""font-size:60px;"">+</div>","null","","","","","","",""
"","567","image-keyboard-response","196","2.0.0","213706","p49qjge5k3r","smaller"," Beaver","The purpose was to see if I could point out the smaller image without basing it on the actual scale size of the objects shown. ","N/A","stimuli/20-Congruent.jpg","m","","","","","right","m","true"
"","null","html-keyboard-response","197","2.0.0","214621","p49qjge5k3r","smaller"," Beaver","The purpose was to see if I could point out the smaller image without basing it on the actual scale size of the objects shown. ","N/A","<p>Correct!</p>","null","","","","","","",""
"","null","html-keyboard-response","198","2.0.0","215623","p49qjge5k3r","smaller"," Beaver","The purpose was to see if I could point out the smaller image without basing it on the actual scale size of the objects shown. ","N/A","<div style=""font-size:60px;"">+</div>","null","","","","","","",""
"","963","image-keyboard-response","199","2.0.0","216588","p49qjge5k3r","smaller"," Beaver","The purpose was to see if I could point out the smaller image without basing it on the actual scale size of the objects shown. ","N/A","stimuli/13-Congruent.jpg","m","","","","","right","m","true"
"","null","html-keyboard-response","200","2.0.0","217490","p49qjge5k3r","smaller"," Beaver","The purpose was to see if I could point out the smaller image without basing it on the actual scale size of the objects shown. ","N/A","<p>Correct!</p>","null","","","","","","",""
"","null","html-keyboard-response","201","2.0.0","218500","p49qjge5k3r","smaller"," Beaver","The purpose was to see if I could point out the smaller image without basing it on the actual scale size of the objects shown. ","N/A","<div style=""font-size:60px;"">+</div>","null","","","","","","",""
"","484","image-keyboard-response","202","2.0.0","218986","p49qjge5k3r","smaller"," Beaver","The purpose was to see if I could point out the smaller image without basing it on the actual scale size of the objects shown. ","N/A","stimuli/32-Congruent.jpg","m","","","","","right","m","true"
"","null","html-keyboard-response","203","2.0.0","219889","p49qjge5k3r","smaller"," Beaver","The purpose was to see if I could point out the smaller image without basing it on the actual scale size of the objects shown. ","N/A","<p>Correct!</p>","null","","","","","","",""
"","null","html-keyboard-response","204","2.0.0","220905","p49qjge5k3r","smaller"," Beaver","The purpose was to see if I could point out the smaller image without basing it on the actual scale size of the objects shown. ","N/A","<div style=""font-size:60px;"">+</div>","null","","","","","","",""
"","559","image-keyboard-response","205","2.0.0","221466","p49qjge5k3r","smaller"," Beaver","The purpose was to see if I could point out the smaller image without basing it on the actual scale size of the objects shown. ","N/A","stimuli/20-Inongruent.jpg","z","","","","","left","z","true"
"","null","html-keyboard-response","206","2.0.0","222375","p49qjge5k3r","smaller"," Beaver","The purpose was to see if I could point out the smaller image without basing it on the actual scale size of the objects shown. ","N/A","<p>Correct!</p>","null","","","","","","",""
"","null","html-keyboard-response","207","2.0.0","223381","p49qjge5k3r","smaller"," Beaver","The purpose was to see if I could point out the smaller image without basing it on the actual scale size of the objects shown. ","N/A","<div style=""font-size:60px;"">+</div>","null","","","","","","",""
"","563","image-keyboard-response","208","2.0.0","223946","p49qjge5k3r","smaller"," Beaver","The purpose was to see if I could point out the smaller image without basing it on the actual scale size of the objects shown. ","N/A","stimuli/2-Inongruent.jpg","z","","","","","left","z","true"
"","null","html-keyboard-response","209","2.0.0","224849","p49qjge5k3r","smaller"," Beaver","The purpose was to see if I could point out the smaller image without basing it on the actual scale size of the objects shown. ","N/A","<p>Correct!</p>","null","","","","","","",""
"","null","html-keyboard-response","210","2.0.0","225867","p49qjge5k3r","smaller"," Beaver","The purpose was to see if I could point out the smaller image without basing it on the actual scale size of the objects shown. ","N/A","<div style=""font-size:60px;"">+</div>","null","","","","","","",""
"","598","image-keyboard-response","211","2.0.0","226466","p49qjge5k3r","smaller"," Beaver","The purpose was to see if I could point out the smaller image without basing it on the actual scale size of the objects shown. ","N/A","stimuli/25-Congruent.jpg","m","","","","","right","m","true"
"","null","html-keyboard-response","212","2.0.0","227369","p49qjge5k3r","smaller"," Beaver","The purpose was to see if I could point out the smaller image without basing it on the actual scale size of the objects shown. ","N/A","<p>Correct!</p>","null","","","","","","",""
"","null","html-keyboard-response","213","2.0.0","228379","p49qjge5k3r","smaller"," Beaver","The purpose was to see if I could point out the smaller image without basing it on the actual scale size of the objects shown. ","N/A","<div style=""font-size:60px;"">+</div>","null","","","","","","",""
"","606","image-keyboard-response","214","2.0.0","228986","p49qjge5k3r","smaller"," Beaver","The purpose was to see if I could point out the smaller image without basing it on the actual scale size of the objects shown. ","N/A","stimuli/11-Congruent.jpg","m","","","","","right","m","true"
"","null","html-keyboard-response","215","2.0.0","229896","p49qjge5k3r","smaller"," Beaver","The purpose was to see if I could point out the smaller image without basing it on the actual scale size of the objects shown. ","N/A","<p>Correct!</p>","null","","","","","","",""
"","null","html-keyboard-response","216","2.0.0","230908","p49qjge5k3r","smaller"," Beaver","The purpose was to see if I could point out the smaller image without basing it on the actual scale size of the objects shown. ","N/A","<div style=""font-size:60px;"">+</div>","null","","","","","","",""
"","546","image-keyboard-response","217","2.0.0","231457","p49qjge5k3r","smaller"," Beaver","The purpose was to see if I could point out the smaller image without basing it on the actual scale size of the objects shown. ","N/A","stimuli/1-Congruent.jpg","m","","","","","right","m","true"
"","null","html-keyboard-response","218","2.0.0","232361","p49qjge5k3r","smaller"," Beaver","The purpose was to see if I could point out the smaller image without basing it on the actual scale size of the objects shown. ","N/A","<p>Correct!</p>","null","","","","","","",""
"","null","html-keyboard-response","219","2.0.0","233374","p49qjge5k3r","smaller"," Beaver","The purpose was to see if I could point out the smaller image without basing it on the actual scale size of the objects shown. ","N/A","<div style=""font-size:60px;"">+</div>","null","","","","","","",""
"","593","image-keyboard-response","220","2.0.0","233969","p49qjge5k3r","smaller"," Beaver","The purpose was to see if I could point out the smaller image without basing it on the actual scale size of the objects shown. ","N/A","stimuli/2-Congruent.jpg","m","","","","","right","m","true"
"","null","html-keyboard-response","221","2.0.0","234873","p49qjge5k3r","smaller"," Beaver","The purpose was to see if I could point out the smaller image without basing it on the actual scale size of the objects shown. ","N/A","<p>Correct!</p>","null","","","","","","",""
"","null","html-keyboard-response","222","2.0.0","235881","p49qjge5k3r","smaller"," Beaver","The purpose was to see if I could point out the smaller image without basing it on the actual scale size of the objects shown. ","N/A","<div style=""font-size:60px;"">+</div>","null","","","","","","",""
"","583","image-keyboard-response","223","2.0.0","236466","p49qjge5k3r","smaller"," Beaver","The purpose was to see if I could point out the smaller image without basing it on the actual scale size of the objects shown. ","N/A","stimuli/20-Inongruent.jpg","z","","","","","left","z","true"
"","null","html-keyboard-response","224","2.0.0","237380","p49qjge5k3r","smaller"," Beaver","The purpose was to see if I could point out the smaller image without basing it on the actual scale size of the objects shown. ","N/A","<p>Correct!</p>","null","","","","","","",""
"","null","html-keyboard-response","225","2.0.0","238382","p49qjge5k3r","smaller"," Beaver","The purpose was to see if I could point out the smaller image without basing it on the actual scale size of the objects shown. ","N/A","<div style=""font-size:60px;"">+</div>","null","","","","","","",""
"","671","image-keyboard-response","226","2.0.0","239056","p49qjge5k3r","smaller"," Beaver","The purpose was to see if I could point out the smaller image without basing it on the actual scale size of the objects shown. ","N/A","stimuli/23-Inongruent.jpg","z","","","","","left","z","true"
"","null","html-keyboard-response","227","2.0.0","239967","p49qjge5k3r","smaller"," Beaver","The purpose was to see if I could point out the smaller image without basing it on the actual scale size of the objects shown. ","N/A","<p>Correct!</p>","null","","","","","","",""
"","null","html-keyboard-response","228","2.0.0","240972","p49qjge5k3r","smaller"," Beaver","The purpose was to see if I could point out the smaller image without basing it on the actual scale size of the objects shown. ","N/A","<div style=""font-size:60px;"">+</div>","null","","","","","","",""
"","642","image-keyboard-response","229","2.0.0","241615","p49qjge5k3r","smaller"," Beaver","The purpose was to see if I could point out the smaller image without basing it on the actual scale size of the objects shown. ","N/A","stimuli/25-Congruent.jpg","m","","","","","right","m","true"
"","null","html-keyboard-response","230","2.0.0","242518","p49qjge5k3r","smaller"," Beaver","The purpose was to see if I could point out the smaller image without basing it on the actual scale size of the objects shown. ","N/A","<p>Correct!</p>","null","","","","","","",""
"","null","html-keyboard-response","231","2.0.0","243522","p49qjge5k3r","smaller"," Beaver","The purpose was to see if I could point out the smaller image without basing it on the actual scale size of the objects shown. ","N/A","<div style=""font-size:60px;"">+</div>","null","","","","","","",""
"","532","image-keyboard-response","232","2.0.0","244054","p49qjge5k3r","smaller"," Beaver","The purpose was to see if I could point out the smaller image without basing it on the actual scale size of the objects shown. ","N/A","stimuli/35-Inongruent.jpg","z","","","","","left","z","true"
"","null","html-keyboard-response","233","2.0.0","244963","p49qjge5k3r","smaller"," Beaver","The purpose was to see if I could point out the smaller image without basing it on the actual scale size of the objects shown. ","N/A","<p>Correct!</p>","null","","","","","","",""
"","null","html-keyboard-response","234","2.0.0","245973","p49qjge5k3r","smaller"," Beaver","The purpose was to see if I could point out the smaller image without basing it on the actual scale size of the objects shown. ","N/A","<div style=""font-size:60px;"">+</div>","null","","","","","","",""
"","570","image-keyboard-response","235","2.0.0","246544","p49qjge5k3r","smaller"," Beaver","The purpose was to see if I could point out the smaller image without basing it on the actual scale size of the objects shown. ","N/A","stimuli/18-Inongruent.jpg","z","","","","","left","z","true"
"","null","html-keyboard-response","236","2.0.0","247459","p49qjge5k3r","smaller"," Beaver","The purpose was to see if I could point out the smaller image without basing it on the actual scale size of the objects shown. ","N/A","<p>Correct!</p>","null","","","","","","",""
"","null","html-keyboard-response","237","2.0.0","248474","p49qjge5k3r","smaller"," Beaver","The purpose was to see if I could point out the smaller image without basing it on the actual scale size of the objects shown. ","N/A","<div style=""font-size:60px;"">+</div>","null","","","","","","",""
"","629","image-keyboard-response","238","2.0.0","249105","p49qjge5k3r","smaller"," Beaver","The purpose was to see if I could point out the smaller image without basing it on the actual scale size of the objects shown. ","N/A","stimuli/3-Inongruent.jpg","z","","","","","left","z","true"
"","null","html-keyboard-response","239","2.0.0","250019","p49qjge5k3r","smaller"," Beaver","The purpose was to see if I could point out the smaller image without basing it on the actual scale size of the objects shown. ","N/A","<p>Correct!</p>","null","","","","","","",""
"","null","html-keyboard-response","240","2.0.0","251029","p49qjge5k3r","smaller"," Beaver","The purpose was to see if I could point out the smaller image without basing it on the actual scale size of the objects shown. ","N/A","<div style=""font-size:60px;"">+</div>","null","","","","","","",""
"","1166","image-keyboard-response","241","2.0.0","252197","p49qjge5k3r","smaller"," Beaver","The purpose was to see if I could point out the smaller image without basing it on the actual scale size of the objects shown. ","N/A","stimuli/23-Congruent.jpg","m","","","","","right","m","true"
"","null","html-keyboard-response","242","2.0.0","253113","p49qjge5k3r","smaller"," Beaver","The purpose was to see if I could point out the smaller image without basing it on the actual scale size of the objects shown. ","N/A","<p>Correct!</p>","null","","","","","","",""
"","null","html-keyboard-response","243","2.0.0","254115","p49qjge5k3r","smaller"," Beaver","The purpose was to see if I could point out the smaller image without basing it on the actual scale size of the objects shown. ","N/A","<div style=""font-size:60px;"">+</div>","null","","","","","","",""
"","600","image-keyboard-response","244","2.0.0","254717","p49qjge5k3r","smaller"," Beaver","The purpose was to see if I could point out the smaller image without basing it on the actual scale size of the objects shown. ","N/A","stimuli/13-Inongruent.jpg","z","","","","","left","z","true"
"","null","html-keyboard-response","245","2.0.0","255620","p49qjge5k3r","smaller"," Beaver","The purpose was to see if I could point out the smaller image without basing it on the actual scale size of the objects shown. ","N/A","<p>Correct!</p>","null","","","","","","",""
"","null","html-keyboard-response","246","2.0.0","256624","p49qjge5k3r","smaller"," Beaver","The purpose was to see if I could point out the smaller image without basing it on the actual scale size of the objects shown. ","N/A","<div style=""font-size:60px;"">+</div>","null","","","","","","",""
"","550","image-keyboard-response","247","2.0.0","257177","p49qjge5k3r","smaller"," Beaver","The purpose was to see if I could point out the smaller image without basing it on the actual scale size of the objects shown. ","N/A","stimuli/12-Congruent.jpg","m","","","","","right","m","true"
"","null","html-keyboard-response","248","2.0.0","258081","p49qjge5k3r","smaller"," Beaver","The purpose was to see if I could point out the smaller image without basing it on the actual scale size of the objects shown. ","N/A","<p>Correct!</p>","null","","","","","","",""
"","null","html-keyboard-response","249","2.0.0","259091","p49qjge5k3r","smaller"," Beaver","The purpose was to see if I could point out the smaller image without basing it on the actual scale size of the objects shown. ","N/A","<div style=""font-size:60px;"">+</div>","null","","","","","","",""
"","814","image-keyboard-response","250","2.0.0","259907","p49qjge5k3r","smaller"," Beaver","The purpose was to see if I could point out the smaller image without basing it on the actual scale size of the objects shown. ","N/A","stimuli/8-Congruent.jpg","m","","","","","right","m","true"
"","null","html-keyboard-response","251","2.0.0","260809","p49qjge5k3r","smaller"," Beaver","The purpose was to see if I could point out the smaller image without basing it on the actual scale size of the objects shown. ","N/A","<p>Correct!</p>","null","","","","","","",""
"","null","html-keyboard-response","252","2.0.0","261818","p49qjge5k3r","smaller"," Beaver","The purpose was to see if I could point out the smaller image without basing it on the actual scale size of the objects shown. ","N/A","<div style=""font-size:60px;"">+</div>","null","","","","","","",""
"","557","image-keyboard-response","253","2.0.0","262377","p49qjge5k3r","smaller"," Beaver","The purpose was to see if I could point out the smaller image without basing it on the actual scale size of the objects shown. ","N/A","stimuli/16-Congruent.jpg","m","","","","","right","m","true"
"","null","html-keyboard-response","254","2.0.0","263289","p49qjge5k3r","smaller"," Beaver","The purpose was to see if I could point out the smaller image without basing it on the actual scale size of the objects shown. ","N/A","<p>Correct!</p>","null","","","","","","",""
"","null","html-keyboard-response","255","2.0.0","264301","p49qjge5k3r","smaller"," Beaver","The purpose was to see if I could point out the smaller image without basing it on the actual scale size of the objects shown. ","N/A","<div style=""font-size:60px;"">+</div>","null","","","","","","",""
"","494","image-keyboard-response","256","2.0.0","264797","p49qjge5k3r","smaller"," Beaver","The purpose was to see if I could point out the smaller image without basing it on the actual scale size of the objects shown. ","N/A","stimuli/22-Inongruent.jpg","z","","","","","left","z","true"
"","null","html-keyboard-response","257","2.0.0","265710","p49qjge5k3r","smaller"," Beaver","The purpose was to see if I could point out the smaller image without basing it on the actual scale size of the objects shown. ","N/A","<p>Correct!</p>","null","","","","","","",""
"","null","html-keyboard-response","258","2.0.0","266717","p49qjge5k3r","smaller"," Beaver","The purpose was to see if I could point out the smaller image without basing it on the actual scale size of the objects shown. ","N/A","<div style=""font-size:60px;"">+</div>","null","","","","","","",""
"","548","image-keyboard-response","259","2.0.0","267266","p49qjge5k3r","smaller"," Beaver","The purpose was to see if I could point out the smaller image without basing it on the actual scale size of the objects shown. ","N/A","stimuli/16-Congruent.jpg","m","","","","","right","m","true"
"","null","html-keyboard-response","260","2.0.0","268177","p49qjge5k3r","smaller"," Beaver","The purpose was to see if I could point out the smaller image without basing it on the actual scale size of the objects shown. ","N/A","<p>Correct!</p>","null","","","","","","",""
"","null","html-keyboard-response","261","2.0.0","269184","p49qjge5k3r","smaller"," Beaver","The purpose was to see if I could point out the smaller image without basing it on the actual scale size of the objects shown. ","N/A","<div style=""font-size:60px;"">+</div>","null","","","","","","",""
"","853","image-keyboard-response","262","2.0.0","270039","p49qjge5k3r","smaller"," Beaver","The purpose was to see if I could point out the smaller image without basing it on the actual scale size of the objects shown. ","N/A","stimuli/6-Congruent.jpg","m","","","","","right","m","true"
"","null","html-keyboard-response","263","2.0.0","270947","p49qjge5k3r","smaller"," Beaver","The purpose was to see if I could point out the smaller image without basing it on the actual scale size of the objects shown. ","N/A","<p>Correct!</p>","null","","","","","","",""
"","null","html-keyboard-response","264","2.0.0","271959","p49qjge5k3r","smaller"," Beaver","The purpose was to see if I could point out the smaller image without basing it on the actual scale size of the objects shown. ","N/A","<div style=""font-size:60px;"">+</div>","null","","","","","","",""
"","637","image-keyboard-response","265","2.0.0","272598","p49qjge5k3r","smaller"," Beaver","The purpose was to see if I could point out the smaller image without basing it on the actual scale size of the objects shown. ","N/A","stimuli/28-Inongruent.jpg","z","","","","","left","z","true"
"","null","html-keyboard-response","266","2.0.0","273510","p49qjge5k3r","smaller"," Beaver","The purpose was to see if I could point out the smaller image without basing it on the actual scale size of the objects shown. ","N/A","<p>Correct!</p>","null","","","","","","",""
"","null","html-keyboard-response","267","2.0.0","274514","p49qjge5k3r","smaller"," Beaver","The purpose was to see if I could point out the smaller image without basing it on the actual scale size of the objects shown. ","N/A","<div style=""font-size:60px;"">+</div>","null","","","","","","",""
"","481","image-keyboard-response","268","2.0.0","274997","p49qjge5k3r","smaller"," Beaver","The purpose was to see if I could point out the smaller image without basing it on the actual scale size of the objects shown. ","N/A","stimuli/7-Congruent.jpg","m","","","","","right","m","true"
"","null","html-keyboard-response","269","2.0.0","275913","p49qjge5k3r","smaller"," Beaver","The purpose was to see if I could point out the smaller image without basing it on the actual scale size of the objects shown. ","N/A","<p>Correct!</p>","null","","","","","","",""
"","null","html-keyboard-response","270","2.0.0","276929","p49qjge5k3r","smaller"," Beaver","The purpose was to see if I could point out the smaller image without basing it on the actual scale size of the objects shown. ","N/A","<div style=""font-size:60px;"">+</div>","null","","","","","","",""
"","725","image-keyboard-response","271","2.0.0","277656","p49qjge5k3r","smaller"," Beaver","The purpose was to see if I could point out the smaller image without basing it on the actual scale size of the objects shown. ","N/A","stimuli/28-Congruent.jpg","m","","","","","right","m","true"
"","null","html-keyboard-response","272","2.0.0","278559","p49qjge5k3r","smaller"," Beaver","The purpose was to see if I could point out the smaller image without basing it on the actual scale size of the objects shown. ","N/A","<p>Correct!</p>","null","","","","","","",""
"","null","html-keyboard-response","273","2.0.0","279567","p49qjge5k3r","smaller"," Beaver","The purpose was to see if I could point out the smaller image without basing it on the actual scale size of the objects shown. ","N/A","<div style=""font-size:60px;"">+</div>","null","","","","","","",""
"","558","image-keyboard-response","274","2.0.0","280127","p49qjge5k3r","smaller"," Beaver","The purpose was to see if I could point out the smaller image without basing it on the actual scale size of the objects shown. ","N/A","stimuli/30-Inongruent.jpg","z","","","","","left","z","true"
"","null","html-keyboard-response","275","2.0.0","281045","p49qjge5k3r","smaller"," Beaver","The purpose was to see if I could point out the smaller image without basing it on the actual scale size of the objects shown. ","N/A","<p>Correct!</p>","null","","","","","","",""
"","null","html-keyboard-response","276","2.0.0","282061","p49qjge5k3r","smaller"," Beaver","The purpose was to see if I could point out the smaller image without basing it on the actual scale size of the objects shown. ","N/A","<div style=""font-size:60px;"">+</div>","null","","","","","","",""
"","514","image-keyboard-response","277","2.0.0","282577","p49qjge5k3r","smaller"," Beaver","The purpose was to see if I could point out the smaller image without basing it on the actual scale size of the objects shown. ","N/A","stimuli/33-Congruent.jpg","m","","","","","right","m","true"
"","null","html-keyboard-response","278","2.0.0","283483","p49qjge5k3r","smaller"," Beaver","The purpose was to see if I could point out the smaller image without basing it on the actual scale size of the objects shown. ","N/A","<p>Correct!</p>","null","","","","","","",""
"","null","html-keyboard-response","279","2.0.0","284496","p49qjge5k3r","smaller"," Beaver","The purpose was to see if I could point out the smaller image without basing it on the actual scale size of the objects shown. ","N/A","<div style=""font-size:60px;"">+</div>","null","","","","","","",""
"","559","image-keyboard-response","280","2.0.0","285057","p49qjge5k3r","smaller"," Beaver","The purpose was to see if I could point out the smaller image without basing it on the actual scale size of the objects shown. ","N/A","stimuli/35-Congruent.jpg","m","","","","","right","m","true"
"","null","html-keyboard-response","281","2.0.0","285962","p49qjge5k3r","smaller"," Beaver","The purpose was to see if I could point out the smaller image without basing it on the actual scale size of the objects shown. ","N/A","<p>Correct!</p>","null","","","","","","",""
"","null","html-keyboard-response","282","2.0.0","286967","p49qjge5k3r","smaller"," Beaver","The purpose was to see if I could point out the smaller image without basing it on the actual scale size of the objects shown. ","N/A","<div style=""font-size:60px;"">+</div>","null","","","","","","",""
"","548","image-keyboard-response","283","2.0.0","287517","p49qjge5k3r","smaller"," Beaver","The purpose was to see if I could point out the smaller image without basing it on the actual scale size of the objects shown. ","N/A","stimuli/34-Inongruent.jpg","z","","","","","left","z","true"
"","null","html-keyboard-response","284","2.0.0","288425","p49qjge5k3r","smaller"," Beaver","The purpose was to see if I could point out the smaller image without basing it on the actual scale size of the objects shown. ","N/A","<p>Correct!</p>","null","","","","","","",""
"","null","html-keyboard-response","285","2.0.0","289428","p49qjge5k3r","smaller"," Beaver","The purpose was to see if I could point out the smaller image without basing it on the actual scale size of the objects shown. ","N/A","<div style=""font-size:60px;"">+</div>","null","","","","","","",""
"","579","image-keyboard-response","286","2.0.0","290008","p49qjge5k3r","smaller"," Beaver","The purpose was to see if I could point out the smaller image without basing it on the actual scale size of the objects shown. ","N/A","stimuli/20-Congruent.jpg","m","","","","","right","m","true"
"","null","html-keyboard-response","287","2.0.0","290923","p49qjge5k3r","smaller"," Beaver","The purpose was to see if I could point out the smaller image without basing it on the actual scale size of the objects shown. ","N/A","<p>Correct!</p>","null","","","","","","",""
"","null","html-keyboard-response","288","2.0.0","291935","p49qjge5k3r","smaller"," Beaver","The purpose was to see if I could point out the smaller image without basing it on the actual scale size of the objects shown. ","N/A","<div style=""font-size:60px;"">+</div>","null","","","","","","",""
"","730","image-keyboard-response","289","2.0.0","292667","p49qjge5k3r","smaller"," Beaver","The purpose was to see if I could point out the smaller image without basing it on the actual scale size of the objects shown. ","N/A","stimuli/33-Inongruent.jpg","z","","","","","left","z","true"
"","null","html-keyboard-response","290","2.0.0","293576","p49qjge5k3r","smaller"," Beaver","The purpose was to see if I could point out the smaller image without basing it on the actual scale size of the objects shown. ","N/A","<p>Correct!</p>","null","","","","","","",""
"","null","html-keyboard-response","291","2.0.0","294593","p49qjge5k3r","smaller"," Beaver","The purpose was to see if I could point out the smaller image without basing it on the actual scale size of the objects shown. ","N/A","<div style=""font-size:60px;"">+</div>","null","","","","","","",""
"","452","image-keyboard-response","292","2.0.0","295047","p49qjge5k3r","smaller"," Beaver","The purpose was to see if I could point out the smaller image without basing it on the actual scale size of the objects shown. ","N/A","stimuli/8-Congruent.jpg","m","","","","","right","m","true"
"","null","html-keyboard-response","293","2.0.0","295957","p49qjge5k3r","smaller"," Beaver","The purpose was to see if I could point out the smaller image without basing it on the actual scale size of the objects shown. ","N/A","<p>Correct!</p>","null","","","","","","",""
"","null","html-keyboard-response","294","2.0.0","296971","p49qjge5k3r","smaller"," Beaver","The purpose was to see if I could point out the smaller image without basing it on the actual scale size of the objects shown. ","N/A","<div style=""font-size:60px;"">+</div>","null","","","","","","",""
"","534","image-keyboard-response","295","2.0.0","297507","p49qjge5k3r","smaller"," Beaver","The purpose was to see if I could point out the smaller image without basing it on the actual scale size of the objects shown. ","N/A","stimuli/18-Congruent.jpg","m","","","","","right","m","true"
"","null","html-keyboard-response","296","2.0.0","298421","p49qjge5k3r","smaller"," Beaver","The purpose was to see if I could point out the smaller image without basing it on the actual scale size of the objects shown. ","N/A","<p>Correct!</p>","null","","","","","","",""
"","null","html-keyboard-response","297","2.0.0","299424","p49qjge5k3r","smaller"," Beaver","The purpose was to see if I could point out the smaller image without basing it on the actual scale size of the objects shown. ","N/A","<div style=""font-size:60px;"">+</div>","null","","","","","","",""
"","600","image-keyboard-response","298","2.0.0","300026","p49qjge5k3r","smaller"," Beaver","The purpose was to see if I could point out the smaller image without basing it on the actual scale size of the objects shown. ","N/A","stimuli/9-Congruent.jpg","m","","","","","right","m","true"
"","null","html-keyboard-response","299","2.0.0","300930","p49qjge5k3r","smaller"," Beaver","The purpose was to see if I could point out the smaller image without basing it on the actual scale size of the objects shown. ","N/A","<p>Correct!</p>","null","","","","","","",""
"","null","html-keyboard-response","300","2.0.0","301937","p49qjge5k3r","smaller"," Beaver","The purpose was to see if I could point out the smaller image without basing it on the actual scale size of the objects shown. ","N/A","<div style=""font-size:60px;"">+</div>","null","","","","","","",""
"","547","image-keyboard-response","301","2.0.0","302487","p49qjge5k3r","smaller"," Beaver","The purpose was to see if I could point out the smaller image without basing it on the actual scale size of the objects shown. ","N/A","stimuli/3-Congruent.jpg","m","","","","","right","m","true"
"","null","html-keyboard-response","302","2.0.0","303389","p49qjge5k3r","smaller"," Beaver","The purpose was to see if I could point out the smaller image without basing it on the actual scale size of the objects shown. ","N/A","<p>Correct!</p>","null","","","","","","",""
"","null","html-keyboard-response","303","2.0.0","304397","p49qjge5k3r","smaller"," Beaver","The purpose was to see if I could point out the smaller image without basing it on the actual scale size of the objects shown. ","N/A","<div style=""font-size:60px;"">+</div>","null","","","","","","",""
"","508","image-keyboard-response","304","2.0.0","304906","p49qjge5k3r","smaller"," Beaver","The purpose was to see if I could point out the smaller image without basing it on the actual scale size of the objects shown. ","N/A","stimuli/15-Congruent.jpg","m","","","","","right","m","true"
"","null","html-keyboard-response","305","2.0.0","305815","p49qjge5k3r","smaller"," Beaver","The purpose was to see if I could point out the smaller image without basing it on the actual scale size of the objects shown. ","N/A","<p>Correct!</p>","null","","","","","","",""
"","null","html-keyboard-response","306","2.0.0","306831","p49qjge5k3r","smaller"," Beaver","The purpose was to see if I could point out the smaller image without basing it on the actual scale size of the objects shown. ","N/A","<div style=""font-size:60px;"">+</div>","null","","","","","","",""
"","504","image-keyboard-response","307","2.0.0","307338","p49qjge5k3r","smaller"," Beaver","The purpose was to see if I could point out the smaller image without basing it on the actual scale size of the objects shown. ","N/A","stimuli/30-Congruent.jpg","m","","","","","right","m","true"
"","null","html-keyboard-response","308","2.0.0","308244","p49qjge5k3r","smaller"," Beaver","The purpose was to see if I could point out the smaller image without basing it on the actual scale size of the objects shown. ","N/A","<p>Correct!</p>","null","","","","","","",""
"","null","html-keyboard-response","309","2.0.0","309258","p49qjge5k3r","smaller"," Beaver","The purpose was to see if I could point out the smaller image without basing it on the actual scale size of the objects shown. ","N/A","<div style=""font-size:60px;"">+</div>","null","","","","","","",""
"","457","image-keyboard-response","310","2.0.0","309717","p49qjge5k3r","smaller"," Beaver","The purpose was to see if I could point out the smaller image without basing it on the actual scale size of the objects shown. ","N/A","stimuli/28-Inongruent.jpg","z","","","","","left","z","true"
"","null","html-keyboard-response","311","2.0.0","310620","p49qjge5k3r","smaller"," Beaver","The purpose was to see if I could point out the smaller image without basing it on the actual scale size of the objects shown. ","N/A","<p>Correct!</p>","null","","","","","","",""
"","null","html-keyboard-response","312","2.0.0","311626","p49qjge5k3r","smaller"," Beaver","The purpose was to see if I could point out the smaller image without basing it on the actual scale size of the objects shown. ","N/A","<div style=""font-size:60px;"">+</div>","null","","","","","","",""
"","449","image-keyboard-response","313","2.0.0","312076","p49qjge5k3r","smaller"," Beaver","The purpose was to see if I could point out the smaller image without basing it on the actual scale size of the objects shown. ","N/A","stimuli/26-Congruent.jpg","m","","","","","right","m","true"
"","null","html-keyboard-response","314","2.0.0","312979","p49qjge5k3r","smaller"," Beaver","The purpose was to see if I could point out the smaller image without basing it on the actual scale size of the objects shown. ","N/A","<p>Correct!</p>","null","","","","","","",""
"","null","html-keyboard-response","315","2.0.0","313989","p49qjge5k3r","smaller"," Beaver","The purpose was to see if I could point out the smaller image without basing it on the actual scale size of the objects shown. ","N/A","<div style=""font-size:60px;"">+</div>","null","","","","","","",""
"","466","image-keyboard-response","316","2.0.0","314457","p49qjge5k3r","smaller"," Beaver","The purpose was to see if I could point out the smaller image without basing it on the actual scale size of the objects shown. ","N/A","stimuli/22-Congruent.jpg","m","","","","","right","m","true"
"","null","html-keyboard-response","317","2.0.0","315360","p49qjge5k3r","smaller"," Beaver","The purpose was to see if I could point out the smaller image without basing it on the actual scale size of the objects shown. ","N/A","<p>Correct!</p>","null","","","","","","",""
"","null","html-keyboard-response","318","2.0.0","316373","p49qjge5k3r","smaller"," Beaver","The purpose was to see if I could point out the smaller image without basing it on the actual scale size of the objects shown. ","N/A","<div style=""font-size:60px;"">+</div>","null","","","","","","",""
"","562","image-keyboard-response","319","2.0.0","316937","p49qjge5k3r","smaller"," Beaver","The purpose was to see if I could point out the smaller image without basing it on the actual scale size of the objects shown. ","N/A","stimuli/6-Inongruent.jpg","z","","","","","left","z","true"
"","null","html-keyboard-response","320","2.0.0","317853","p49qjge5k3r","smaller"," Beaver","The purpose was to see if I could point out the smaller image without basing it on the actual scale size of the objects shown. ","N/A","<p>Correct!</p>","null","","","","","","",""
"","null","html-keyboard-response","321","2.0.0","318860","p49qjge5k3r","smaller"," Beaver","The purpose was to see if I could point out the smaller image without basing it on the actual scale size of the objects shown. ","N/A","<div style=""font-size:60px;"">+</div>","null","","","","","","",""
"","426","image-keyboard-response","322","2.0.0","319288","p49qjge5k3r","smaller"," Beaver","The purpose was to see if I could point out the smaller image without basing it on the actual scale size of the objects shown. ","N/A","stimuli/26-Congruent.jpg","m","","","","","right","m","true"
"","null","html-keyboard-response","323","2.0.0","320190","p49qjge5k3r","smaller"," Beaver","The purpose was to see if I could point out the smaller image without basing it on the actual scale size of the objects shown. ","N/A","<p>Correct!</p>","null","","","","","","",""
"","null","html-keyboard-response","324","2.0.0","321193","p49qjge5k3r","smaller"," Beaver","The purpose was to see if I could point out the smaller image without basing it on the actual scale size of the objects shown. ","N/A","<div style=""font-size:60px;"">+</div>","null","","","","","","",""
"","513","image-keyboard-response","325","2.0.0","321708","p49qjge5k3r","smaller"," Beaver","The purpose was to see if I could point out the smaller image without basing it on the actual scale size of the objects shown. ","N/A","stimuli/34-Congruent.jpg","m","","","","","right","m","true"
"","null","html-keyboard-response","326","2.0.0","322611","p49qjge5k3r","smaller"," Beaver","The purpose was to see if I could point out the smaller image without basing it on the actual scale size of the objects shown. ","N/A","<p>Correct!</p>","null","","","","","","",""
"","null","html-keyboard-response","327","2.0.0","323618","p49qjge5k3r","smaller"," Beaver","The purpose was to see if I could point out the smaller image without basing it on the actual scale size of the objects shown. ","N/A","<div style=""font-size:60px;"">+</div>","null","","","","","","",""
"","829","image-keyboard-response","328","2.0.0","324449","p49qjge5k3r","smaller"," Beaver","The purpose was to see if I could point out the smaller image without basing it on the actual scale size of the objects shown. ","N/A","stimuli/13-Inongruent.jpg","z","","","","","left","z","true"
"","null","html-keyboard-response","329","2.0.0","325361","p49qjge5k3r","smaller"," Beaver","The purpose was to see if I could point out the smaller image without basing it on the actual scale size of the objects shown. ","N/A","<p>Correct!</p>","null","","","","","","",""
"","null","html-keyboard-response","330","2.0.0","326366","p49qjge5k3r","smaller"," Beaver","The purpose was to see if I could point out the smaller image without basing it on the actual scale size of the objects shown. ","N/A","<div style=""font-size:60px;"">+</div>","null","","","","","","",""
"","500","image-keyboard-response","331","2.0.0","326868","p49qjge5k3r","smaller"," Beaver","The purpose was to see if I could point out the smaller image without basing it on the actual scale size of the objects shown. ","N/A","stimuli/8-Inongruent.jpg","z","","","","","left","z","true"
"","null","html-keyboard-response","332","2.0.0","327770","p49qjge5k3r","smaller"," Beaver","The purpose was to see if I could point out the smaller image without basing it on the actual scale size of the objects shown. ","N/A","<p>Correct!</p>","null","","","","","","",""
"","null","html-keyboard-response","333","2.0.0","328779","p49qjge5k3r","smaller"," Beaver","The purpose was to see if I could point out the smaller image without basing it on the actual scale size of the objects shown. ","N/A","<div style=""font-size:60px;"">+</div>","null","","","","","","",""
"","687","image-keyboard-response","334","2.0.0","329467","p49qjge5k3r","smaller"," Beaver","The purpose was to see if I could point out the smaller image without basing it on the actual scale size of the objects shown. ","N/A","stimuli/10-Inongruent.jpg","z","","","","","left","z","true"
"","null","html-keyboard-response","335","2.0.0","330375","p49qjge5k3r","smaller"," Beaver","The purpose was to see if I could point out the smaller image without basing it on the actual scale size of the objects shown. ","N/A","<p>Correct!</p>","null","","","","","","",""
"","null","html-keyboard-response","336","2.0.0","331377","p49qjge5k3r","smaller"," Beaver","The purpose was to see if I could point out the smaller image without basing it on the actual scale size of the objects shown. ","N/A","<div style=""font-size:60px;"">+</div>","null","","","","","","",""
"","609","image-keyboard-response","337","2.0.0","331988","p49qjge5k3r","smaller"," Beaver","The purpose was to see if I could point out the smaller image without basing it on the actual scale size of the objects shown. ","N/A","stimuli/14-Congruent.jpg","m","","","","","right","m","true"
"","null","html-keyboard-response","338","2.0.0","332900","p49qjge5k3r","smaller"," Beaver","The purpose was to see if I could point out the smaller image without basing it on the actual scale size of the objects shown. ","N/A","<p>Correct!</p>","null","","","","","","",""
"","null","html-keyboard-response","339","2.0.0","333905","p49qjge5k3r","smaller"," Beaver","The purpose was to see if I could point out the smaller image without basing it on the actual scale size of the objects shown. ","N/A","<div style=""font-size:60px;"">+</div>","null","","","","","","",""
"","1060","image-keyboard-response","340","2.0.0","334968","p49qjge5k3r","smaller"," Beaver","The purpose was to see if I could point out the smaller image without basing it on the actual scale size of the objects shown. ","N/A","stimuli/19-Congruent.jpg","m","","","","","right","m","true"
"","null","html-keyboard-response","341","2.0.0","335873","p49qjge5k3r","smaller"," Beaver","The purpose was to see if I could point out the smaller image without basing it on the actual scale size of the objects shown. ","N/A","<p>Correct!</p>","null","","","","","","",""
"","null","html-keyboard-response","342","2.0.0","336881","p49qjge5k3r","smaller"," Beaver","The purpose was to see if I could point out the smaller image without basing it on the actual scale size of the objects shown. ","N/A","<div style=""font-size:60px;"">+</div>","null","","","","","","",""
"","575","image-keyboard-response","343","2.0.0","337458","p49qjge5k3r","smaller"," Beaver","The purpose was to see if I could point out the smaller image without basing it on the actual scale size of the objects shown. ","N/A","stimuli/17-Inongruent.jpg","z","","","","","left","z","true"
"","null","html-keyboard-response","344","2.0.0","338361","p49qjge5k3r","smaller"," Beaver","The purpose was to see if I could point out the smaller image without basing it on the actual scale size of the objects shown. ","N/A","<p>Correct!</p>","null","","","","","","",""
