"success","rt","trial_type","trial_index","plugin_version","time_elapsed","random_id","condition","participant","participant_thoughts","participant_difficulties","stimulus","response","timeout","failed_images","failed_audio","failed_video","correct_response","correct_response_key","correct"
"true","1617","fullscreen","0","null","2621","p4t2a7cphcu","smaller","kangaroo","To see how object recognition interferes with our ability to detect the size of an object on the screen. ","No","","","","","","","","",""
"","670","html-keyboard-response","1","2.0.0","3293","p4t2a7cphcu","smaller","kangaroo","To see how object recognition interferes with our ability to detect the size of an object on the screen. ","No","Welcome to the Size Stroop experiment. Press any key to begin."," ","","","","","","",""
"","478","html-keyboard-response","2","2.0.0","3772","p4t2a7cphcu","smaller","kangaroo","To see how object recognition interferes with our ability to detect the size of an object on the screen. ","No","This trial will be in fullscreen mode."," ","","","","","","",""
"","3957","survey-text","3","2.0.0","7734","p4t2a7cphcu","smaller","kangaroo","To see how object recognition interferes with our ability to detect the size of an object on the screen. ","No","","{""participant_id"":""kangaroo""}","","","","","","",""
"","7250","html-keyboard-response","4","2.0.0","14985","p4t2a7cphcu","smaller","kangaroo","To see how object recognition interferes with our ability to detect the size of an object on the screen. ","No","<p>In this experiment, two images will appear on the screen. Identify the <strong>smaller</strong> image.</p>
              <p>If the image on the left is smaller, press ""z"". If the image on the right is smaller, press ""m"".</p>
              <p>Press any key to begin.</p>"," ","","","","","","",""
"true","","preload","5","2.0.0","15385","p4t2a7cphcu","smaller","kangaroo","To see how object recognition interferes with our ability to detect the size of an object on the screen. ","No","","","false","[]","[]","[]","","",""
"","null","html-keyboard-response","6","2.0.0","16388","p4t2a7cphcu","smaller","kangaroo","To see how object recognition interferes with our ability to detect the size of an object on the screen. ","No","<div style=""font-size:60px;"">+</div>","null","","","","","","",""
"","3519","image-keyboard-response","7","2.0.0","19912","p4t2a7cphcu","smaller","kangaroo","To see how object recognition interferes with our ability to detect the size of an object on the screen. ","No","stimuli/35-Congruent.jpg","m","","","","","right","m","true"
"","null","html-keyboard-response","8","2.0.0","20815","p4t2a7cphcu","smaller","kangaroo","To see how object recognition interferes with our ability to detect the size of an object on the screen. ","No","<p>Correct!</p>","null","","","","","","",""
"","null","html-keyboard-response","9","2.0.0","21818","p4t2a7cphcu","smaller","kangaroo","To see how object recognition interferes with our ability to detect the size of an object on the screen. ","No","<div style=""font-size:60px;"">+</div>","null","","","","","","",""
"","1052","image-keyboard-response","10","2.0.0","22872","p4t2a7cphcu","smaller","kangaroo","To see how object recognition interferes with our ability to detect the size of an object on the screen. ","No","stimuli/24-Congruent.jpg","m","","","","","right","m","true"
"","null","html-keyboard-response","11","2.0.0","23774","p4t2a7cphcu","smaller","kangaroo","To see how object recognition interferes with our ability to detect the size of an object on the screen. ","No","<p>Correct!</p>","null","","","","","","",""
"","null","html-keyboard-response","12","2.0.0","24777","p4t2a7cphcu","smaller","kangaroo","To see how object recognition interferes with our ability to detect the size of an object on the screen. ","No","<div style=""font-size:60px;"">+</div>","null","","","","","","",""
"","753","image-keyboard-response","13","2.0.0","25532","p4t2a7cphcu","smaller","kangaroo","To see how object recognition interferes with our ability to detect the size of an object on the screen. ","No","stimuli/9-Congruent.jpg","m","","","","","right","m","true"
"","null","html-keyboard-response","14","2.0.0","26435","p4t2a7cphcu","smaller","kangaroo","To see how object recognition interferes with our ability to detect the size of an object on the screen. ","No","<p>Correct!</p>","null","","","","","","",""
"","null","html-keyboard-response","15","2.0.0","27438","p4t2a7cphcu","smaller","kangaroo","To see how object recognition interferes with our ability to detect the size of an object on the screen. ","No","<div style=""font-size:60px;"">+</div>","null","","","","","","",""
"","1411","image-keyboard-response","16","2.0.0","28852","p4t2a7cphcu","smaller","kangaroo","To see how object recognition interferes with our ability to detect the size of an object on the screen. ","No","stimuli/11-Congruent.jpg","m","","","","","right","m","true"
"","null","html-keyboard-response","17","2.0.0","29755","p4t2a7cphcu","smaller","kangaroo","To see how object recognition interferes with our ability to detect the size of an object on the screen. ","No","<p>Correct!</p>","null","","","","","","",""
"","null","html-keyboard-response","18","2.0.0","30757","p4t2a7cphcu","smaller","kangaroo","To see how object recognition interferes with our ability to detect the size of an object on the screen. ","No","<div style=""font-size:60px;"">+</div>","null","","","","","","",""
"","671","image-keyboard-response","19","2.0.0","31430","p4t2a7cphcu","smaller","kangaroo","To see how object recognition interferes with our ability to detect the size of an object on the screen. ","No","stimuli/32-Inongruent.jpg","z","","","","","left","z","true"
"","null","html-keyboard-response","20","2.0.0","32332","p4t2a7cphcu","smaller","kangaroo","To see how object recognition interferes with our ability to detect the size of an object on the screen. ","No","<p>Correct!</p>","null","","","","","","",""
"","null","html-keyboard-response","21","2.0.0","33335","p4t2a7cphcu","smaller","kangaroo","To see how object recognition interferes with our ability to detect the size of an object on the screen. ","No","<div style=""font-size:60px;"">+</div>","null","","","","","","",""
"","612","image-keyboard-response","22","2.0.0","33950","p4t2a7cphcu","smaller","kangaroo","To see how object recognition interferes with our ability to detect the size of an object on the screen. ","No","stimuli/24-Inongruent.jpg","z","","","","","left","z","true"
"","null","html-keyboard-response","23","2.0.0","34853","p4t2a7cphcu","smaller","kangaroo","To see how object recognition interferes with our ability to detect the size of an object on the screen. ","No","<p>Correct!</p>","null","","","","","","",""
"","null","html-keyboard-response","24","2.0.0","35855","p4t2a7cphcu","smaller","kangaroo","To see how object recognition interferes with our ability to detect the size of an object on the screen. ","No","<div style=""font-size:60px;"">+</div>","null","","","","","","",""
"","822","image-keyboard-response","25","2.0.0","36680","p4t2a7cphcu","smaller","kangaroo","To see how object recognition interferes with our ability to detect the size of an object on the screen. ","No","stimuli/4-Inongruent.jpg","z","","","","","left","z","true"
"","null","html-keyboard-response","26","2.0.0","37583","p4t2a7cphcu","smaller","kangaroo","To see how object recognition interferes with our ability to detect the size of an object on the screen. ","No","<p>Correct!</p>","null","","","","","","",""
"","null","html-keyboard-response","27","2.0.0","38585","p4t2a7cphcu","smaller","kangaroo","To see how object recognition interferes with our ability to detect the size of an object on the screen. ","No","<div style=""font-size:60px;"">+</div>","null","","","","","","",""
"","850","image-keyboard-response","28","2.0.0","39437","p4t2a7cphcu","smaller","kangaroo","To see how object recognition interferes with our ability to detect the size of an object on the screen. ","No","stimuli/11-Inongruent.jpg","z","","","","","left","z","true"
"","null","html-keyboard-response","29","2.0.0","40339","p4t2a7cphcu","smaller","kangaroo","To see how object recognition interferes with our ability to detect the size of an object on the screen. ","No","<p>Correct!</p>","null","","","","","","",""
"","null","html-keyboard-response","30","2.0.0","41342","p4t2a7cphcu","smaller","kangaroo","To see how object recognition interferes with our ability to detect the size of an object on the screen. ","No","<div style=""font-size:60px;"">+</div>","null","","","","","","",""
"","658","image-keyboard-response","31","2.0.0","42002","p4t2a7cphcu","smaller","kangaroo","To see how object recognition interferes with our ability to detect the size of an object on the screen. ","No","stimuli/14-Congruent.jpg","m","","","","","right","m","true"
"","null","html-keyboard-response","32","2.0.0","42904","p4t2a7cphcu","smaller","kangaroo","To see how object recognition interferes with our ability to detect the size of an object on the screen. ","No","<p>Correct!</p>","null","","","","","","",""
"","null","html-keyboard-response","33","2.0.0","43907","p4t2a7cphcu","smaller","kangaroo","To see how object recognition interferes with our ability to detect the size of an object on the screen. ","No","<div style=""font-size:60px;"">+</div>","null","","","","","","",""
"","694","image-keyboard-response","34","2.0.0","44603","p4t2a7cphcu","smaller","kangaroo","To see how object recognition interferes with our ability to detect the size of an object on the screen. ","No","stimuli/31-Congruent.jpg","m","","","","","right","m","true"
"","null","html-keyboard-response","35","2.0.0","45506","p4t2a7cphcu","smaller","kangaroo","To see how object recognition interferes with our ability to detect the size of an object on the screen. ","No","<p>Correct!</p>","null","","","","","","",""
"","null","html-keyboard-response","36","2.0.0","46509","p4t2a7cphcu","smaller","kangaroo","To see how object recognition interferes with our ability to detect the size of an object on the screen. ","No","<div style=""font-size:60px;"">+</div>","null","","","","","","",""
"","603","image-keyboard-response","37","2.0.0","47114","p4t2a7cphcu","smaller","kangaroo","To see how object recognition interferes with our ability to detect the size of an object on the screen. ","No","stimuli/28-Congruent.jpg","m","","","","","right","m","true"
"","null","html-keyboard-response","38","2.0.0","48016","p4t2a7cphcu","smaller","kangaroo","To see how object recognition interferes with our ability to detect the size of an object on the screen. ","No","<p>Correct!</p>","null","","","","","","",""
"","null","html-keyboard-response","39","2.0.0","49019","p4t2a7cphcu","smaller","kangaroo","To see how object recognition interferes with our ability to detect the size of an object on the screen. ","No","<div style=""font-size:60px;"">+</div>","null","","","","","","",""
"","618","image-keyboard-response","40","2.0.0","49639","p4t2a7cphcu","smaller","kangaroo","To see how object recognition interferes with our ability to detect the size of an object on the screen. ","No","stimuli/30-Congruent.jpg","m","","","","","right","m","true"
"","null","html-keyboard-response","41","2.0.0","50542","p4t2a7cphcu","smaller","kangaroo","To see how object recognition interferes with our ability to detect the size of an object on the screen. ","No","<p>Correct!</p>","null","","","","","","",""
"","null","html-keyboard-response","42","2.0.0","51545","p4t2a7cphcu","smaller","kangaroo","To see how object recognition interferes with our ability to detect the size of an object on the screen. ","No","<div style=""font-size:60px;"">+</div>","null","","","","","","",""
"","855","image-keyboard-response","43","2.0.0","52402","p4t2a7cphcu","smaller","kangaroo","To see how object recognition interferes with our ability to detect the size of an object on the screen. ","No","stimuli/31-Congruent.jpg","m","","","","","right","m","true"
"","null","html-keyboard-response","44","2.0.0","53304","p4t2a7cphcu","smaller","kangaroo","To see how object recognition interferes with our ability to detect the size of an object on the screen. ","No","<p>Correct!</p>","null","","","","","","",""
"","null","html-keyboard-response","45","2.0.0","54307","p4t2a7cphcu","smaller","kangaroo","To see how object recognition interferes with our ability to detect the size of an object on the screen. ","No","<div style=""font-size:60px;"">+</div>","null","","","","","","",""
"","816","image-keyboard-response","46","2.0.0","55125","p4t2a7cphcu","smaller","kangaroo","To see how object recognition interferes with our ability to detect the size of an object on the screen. ","No","stimuli/21-Inongruent.jpg","z","","","","","left","z","true"
"","null","html-keyboard-response","47","2.0.0","56028","p4t2a7cphcu","smaller","kangaroo","To see how object recognition interferes with our ability to detect the size of an object on the screen. ","No","<p>Correct!</p>","null","","","","","","",""
"","null","html-keyboard-response","48","2.0.0","57031","p4t2a7cphcu","smaller","kangaroo","To see how object recognition interferes with our ability to detect the size of an object on the screen. ","No","<div style=""font-size:60px;"">+</div>","null","","","","","","",""
"","1404","image-keyboard-response","49","2.0.0","58437","p4t2a7cphcu","smaller","kangaroo","To see how object recognition interferes with our ability to detect the size of an object on the screen. ","No","stimuli/15-Inongruent.jpg","z","","","","","left","z","true"
"","null","html-keyboard-response","50","2.0.0","59339","p4t2a7cphcu","smaller","kangaroo","To see how object recognition interferes with our ability to detect the size of an object on the screen. ","No","<p>Correct!</p>","null","","","","","","",""
"","null","html-keyboard-response","51","2.0.0","60342","p4t2a7cphcu","smaller","kangaroo","To see how object recognition interferes with our ability to detect the size of an object on the screen. ","No","<div style=""font-size:60px;"">+</div>","null","","","","","","",""
"","610","image-keyboard-response","52","2.0.0","60954","p4t2a7cphcu","smaller","kangaroo","To see how object recognition interferes with our ability to detect the size of an object on the screen. ","No","stimuli/20-Inongruent.jpg","z","","","","","left","z","true"
"","null","html-keyboard-response","53","2.0.0","61856","p4t2a7cphcu","smaller","kangaroo","To see how object recognition interferes with our ability to detect the size of an object on the screen. ","No","<p>Correct!</p>","null","","","","","","",""
"","null","html-keyboard-response","54","2.0.0","62859","p4t2a7cphcu","smaller","kangaroo","To see how object recognition interferes with our ability to detect the size of an object on the screen. ","No","<div style=""font-size:60px;"">+</div>","null","","","","","","",""
"","1430","image-keyboard-response","55","2.0.0","64291","p4t2a7cphcu","smaller","kangaroo","To see how object recognition interferes with our ability to detect the size of an object on the screen. ","No","stimuli/17-Congruent.jpg","m","","","","","right","m","true"
"","null","html-keyboard-response","56","2.0.0","65193","p4t2a7cphcu","smaller","kangaroo","To see how object recognition interferes with our ability to detect the size of an object on the screen. ","No","<p>Correct!</p>","null","","","","","","",""
"","null","html-keyboard-response","57","2.0.0","66196","p4t2a7cphcu","smaller","kangaroo","To see how object recognition interferes with our ability to detect the size of an object on the screen. ","No","<div style=""font-size:60px;"">+</div>","null","","","","","","",""
"","658","image-keyboard-response","58","2.0.0","66856","p4t2a7cphcu","smaller","kangaroo","To see how object recognition interferes with our ability to detect the size of an object on the screen. ","No","stimuli/32-Congruent.jpg","m","","","","","right","m","true"
"","null","html-keyboard-response","59","2.0.0","67759","p4t2a7cphcu","smaller","kangaroo","To see how object recognition interferes with our ability to detect the size of an object on the screen. ","No","<p>Correct!</p>","null","","","","","","",""
"","null","html-keyboard-response","60","2.0.0","68761","p4t2a7cphcu","smaller","kangaroo","To see how object recognition interferes with our ability to detect the size of an object on the screen. ","No","<div style=""font-size:60px;"">+</div>","null","","","","","","",""
"","1204","image-keyboard-response","61","2.0.0","69967","p4t2a7cphcu","smaller","kangaroo","To see how object recognition interferes with our ability to detect the size of an object on the screen. ","No","stimuli/19-Congruent.jpg","m","","","","","right","m","true"
"","null","html-keyboard-response","62","2.0.0","70870","p4t2a7cphcu","smaller","kangaroo","To see how object recognition interferes with our ability to detect the size of an object on the screen. ","No","<p>Correct!</p>","null","","","","","","",""
"","null","html-keyboard-response","63","2.0.0","71872","p4t2a7cphcu","smaller","kangaroo","To see how object recognition interferes with our ability to detect the size of an object on the screen. ","No","<div style=""font-size:60px;"">+</div>","null","","","","","","",""
"","640","image-keyboard-response","64","2.0.0","72514","p4t2a7cphcu","smaller","kangaroo","To see how object recognition interferes with our ability to detect the size of an object on the screen. ","No","stimuli/30-Inongruent.jpg","z","","","","","left","z","true"
"","null","html-keyboard-response","65","2.0.0","73417","p4t2a7cphcu","smaller","kangaroo","To see how object recognition interferes with our ability to detect the size of an object on the screen. ","No","<p>Correct!</p>","null","","","","","","",""
"","null","html-keyboard-response","66","2.0.0","74419","p4t2a7cphcu","smaller","kangaroo","To see how object recognition interferes with our ability to detect the size of an object on the screen. ","No","<div style=""font-size:60px;"">+</div>","null","","","","","","",""
"","548","image-keyboard-response","67","2.0.0","74969","p4t2a7cphcu","smaller","kangaroo","To see how object recognition interferes with our ability to detect the size of an object on the screen. ","No","stimuli/7-Congruent.jpg","m","","","","","right","m","true"
"","null","html-keyboard-response","68","2.0.0","75872","p4t2a7cphcu","smaller","kangaroo","To see how object recognition interferes with our ability to detect the size of an object on the screen. ","No","<p>Correct!</p>","null","","","","","","",""
"","null","html-keyboard-response","69","2.0.0","76875","p4t2a7cphcu","smaller","kangaroo","To see how object recognition interferes with our ability to detect the size of an object on the screen. ","No","<div style=""font-size:60px;"">+</div>","null","","","","","","",""
"","628","image-keyboard-response","70","2.0.0","77504","p4t2a7cphcu","smaller","kangaroo","To see how object recognition interferes with our ability to detect the size of an object on the screen. ","No","stimuli/7-Inongruent.jpg","z","","","","","left","z","true"
"","null","html-keyboard-response","71","2.0.0","78407","p4t2a7cphcu","smaller","kangaroo","To see how object recognition interferes with our ability to detect the size of an object on the screen. ","No","<p>Correct!</p>","null","","","","","","",""
"","null","html-keyboard-response","72","2.0.0","79410","p4t2a7cphcu","smaller","kangaroo","To see how object recognition interferes with our ability to detect the size of an object on the screen. ","No","<div style=""font-size:60px;"">+</div>","null","","","","","","",""
"","574","image-keyboard-response","73","2.0.0","79986","p4t2a7cphcu","smaller","kangaroo","To see how object recognition interferes with our ability to detect the size of an object on the screen. ","No","stimuli/10-Inongruent.jpg","z","","","","","left","z","true"
"","null","html-keyboard-response","74","2.0.0","80889","p4t2a7cphcu","smaller","kangaroo","To see how object recognition interferes with our ability to detect the size of an object on the screen. ","No","<p>Correct!</p>","null","","","","","","",""
"","null","html-keyboard-response","75","2.0.0","81891","p4t2a7cphcu","smaller","kangaroo","To see how object recognition interferes with our ability to detect the size of an object on the screen. ","No","<div style=""font-size:60px;"">+</div>","null","","","","","","",""
"","796","image-keyboard-response","76","2.0.0","82689","p4t2a7cphcu","smaller","kangaroo","To see how object recognition interferes with our ability to detect the size of an object on the screen. ","No","stimuli/13-Congruent.jpg","m","","","","","right","m","true"
"","null","html-keyboard-response","77","2.0.0","83592","p4t2a7cphcu","smaller","kangaroo","To see how object recognition interferes with our ability to detect the size of an object on the screen. ","No","<p>Correct!</p>","null","","","","","","",""
"","null","html-keyboard-response","78","2.0.0","84595","p4t2a7cphcu","smaller","kangaroo","To see how object recognition interferes with our ability to detect the size of an object on the screen. ","No","<div style=""font-size:60px;"">+</div>","null","","","","","","",""
"","646","image-keyboard-response","79","2.0.0","85243","p4t2a7cphcu","smaller","kangaroo","To see how object recognition interferes with our ability to detect the size of an object on the screen. ","No","stimuli/11-Congruent.jpg","m","","","","","right","m","true"
"","null","html-keyboard-response","80","2.0.0","86146","p4t2a7cphcu","smaller","kangaroo","To see how object recognition interferes with our ability to detect the size of an object on the screen. ","No","<p>Correct!</p>","null","","","","","","",""
"","null","html-keyboard-response","81","2.0.0","87148","p4t2a7cphcu","smaller","kangaroo","To see how object recognition interferes with our ability to detect the size of an object on the screen. ","No","<div style=""font-size:60px;"">+</div>","null","","","","","","",""
"","477","image-keyboard-response","82","2.0.0","87627","p4t2a7cphcu","smaller","kangaroo","To see how object recognition interferes with our ability to detect the size of an object on the screen. ","No","stimuli/14-Inongruent.jpg","z","","","","","left","z","true"
"","null","html-keyboard-response","83","2.0.0","88529","p4t2a7cphcu","smaller","kangaroo","To see how object recognition interferes with our ability to detect the size of an object on the screen. ","No","<p>Correct!</p>","null","","","","","","",""
"","null","html-keyboard-response","84","2.0.0","89532","p4t2a7cphcu","smaller","kangaroo","To see how object recognition interferes with our ability to detect the size of an object on the screen. ","No","<div style=""font-size:60px;"">+</div>","null","","","","","","",""
"","472","image-keyboard-response","85","2.0.0","90006","p4t2a7cphcu","smaller","kangaroo","To see how object recognition interferes with our ability to detect the size of an object on the screen. ","No","stimuli/26-Congruent.jpg","m","","","","","right","m","true"
"","null","html-keyboard-response","86","2.0.0","90907","p4t2a7cphcu","smaller","kangaroo","To see how object recognition interferes with our ability to detect the size of an object on the screen. ","No","<p>Correct!</p>","null","","","","","","",""
"","null","html-keyboard-response","87","2.0.0","91910","p4t2a7cphcu","smaller","kangaroo","To see how object recognition interferes with our ability to detect the size of an object on the screen. ","No","<div style=""font-size:60px;"">+</div>","null","","","","","","",""
"","502","image-keyboard-response","88","2.0.0","92415","p4t2a7cphcu","smaller","kangaroo","To see how object recognition interferes with our ability to detect the size of an object on the screen. ","No","stimuli/12-Inongruent.jpg","z","","","","","left","z","true"
"","null","html-keyboard-response","89","2.0.0","93317","p4t2a7cphcu","smaller","kangaroo","To see how object recognition interferes with our ability to detect the size of an object on the screen. ","No","<p>Correct!</p>","null","","","","","","",""
"","null","html-keyboard-response","90","2.0.0","94320","p4t2a7cphcu","smaller","kangaroo","To see how object recognition interferes with our ability to detect the size of an object on the screen. ","No","<div style=""font-size:60px;"">+</div>","null","","","","","","",""
"","883","image-keyboard-response","91","2.0.0","95206","p4t2a7cphcu","smaller","kangaroo","To see how object recognition interferes with our ability to detect the size of an object on the screen. ","No","stimuli/30-Inongruent.jpg","z","","","","","left","z","true"
"","null","html-keyboard-response","92","2.0.0","96108","p4t2a7cphcu","smaller","kangaroo","To see how object recognition interferes with our ability to detect the size of an object on the screen. ","No","<p>Correct!</p>","null","","","","","","",""
"","null","html-keyboard-response","93","2.0.0","97111","p4t2a7cphcu","smaller","kangaroo","To see how object recognition interferes with our ability to detect the size of an object on the screen. ","No","<div style=""font-size:60px;"">+</div>","null","","","","","","",""
"","622","image-keyboard-response","94","2.0.0","97734","p4t2a7cphcu","smaller","kangaroo","To see how object recognition interferes with our ability to detect the size of an object on the screen. ","No","stimuli/33-Congruent.jpg","m","","","","","right","m","true"
"","null","html-keyboard-response","95","2.0.0","98638","p4t2a7cphcu","smaller","kangaroo","To see how object recognition interferes with our ability to detect the size of an object on the screen. ","No","<p>Correct!</p>","null","","","","","","",""
"","null","html-keyboard-response","96","2.0.0","99641","p4t2a7cphcu","smaller","kangaroo","To see how object recognition interferes with our ability to detect the size of an object on the screen. ","No","<div style=""font-size:60px;"">+</div>","null","","","","","","",""
"","505","image-keyboard-response","97","2.0.0","100148","p4t2a7cphcu","smaller","kangaroo","To see how object recognition interferes with our ability to detect the size of an object on the screen. ","No","stimuli/8-Inongruent.jpg","z","","","","","left","z","true"
"","null","html-keyboard-response","98","2.0.0","101051","p4t2a7cphcu","smaller","kangaroo","To see how object recognition interferes with our ability to detect the size of an object on the screen. ","No","<p>Correct!</p>","null","","","","","","",""
"","null","html-keyboard-response","99","2.0.0","102053","p4t2a7cphcu","smaller","kangaroo","To see how object recognition interferes with our ability to detect the size of an object on the screen. ","No","<div style=""font-size:60px;"">+</div>","null","","","","","","",""
"","463","image-keyboard-response","100","2.0.0","102519","p4t2a7cphcu","smaller","kangaroo","To see how object recognition interferes with our ability to detect the size of an object on the screen. ","No","stimuli/5-Congruent.jpg","m","","","","","right","m","true"
"","null","html-keyboard-response","101","2.0.0","103421","p4t2a7cphcu","smaller","kangaroo","To see how object recognition interferes with our ability to detect the size of an object on the screen. ","No","<p>Correct!</p>","null","","","","","","",""
"","null","html-keyboard-response","102","2.0.0","104425","p4t2a7cphcu","smaller","kangaroo","To see how object recognition interferes with our ability to detect the size of an object on the screen. ","No","<div style=""font-size:60px;"">+</div>","null","","","","","","",""
"","768","image-keyboard-response","103","2.0.0","105195","p4t2a7cphcu","smaller","kangaroo","To see how object recognition interferes with our ability to detect the size of an object on the screen. ","No","stimuli/8-Congruent.jpg","m","","","","","right","m","true"
"","null","html-keyboard-response","104","2.0.0","106097","p4t2a7cphcu","smaller","kangaroo","To see how object recognition interferes with our ability to detect the size of an object on the screen. ","No","<p>Correct!</p>","null","","","","","","",""
"","null","html-keyboard-response","105","2.0.0","107100","p4t2a7cphcu","smaller","kangaroo","To see how object recognition interferes with our ability to detect the size of an object on the screen. ","No","<div style=""font-size:60px;"">+</div>","null","","","","","","",""
"","561","image-keyboard-response","106","2.0.0","107663","p4t2a7cphcu","smaller","kangaroo","To see how object recognition interferes with our ability to detect the size of an object on the screen. ","No","stimuli/36-Inongruent.jpg","z","","","","","left","z","true"
"","null","html-keyboard-response","107","2.0.0","108565","p4t2a7cphcu","smaller","kangaroo","To see how object recognition interferes with our ability to detect the size of an object on the screen. ","No","<p>Correct!</p>","null","","","","","","",""
"","null","html-keyboard-response","108","2.0.0","109569","p4t2a7cphcu","smaller","kangaroo","To see how object recognition interferes with our ability to detect the size of an object on the screen. ","No","<div style=""font-size:60px;"">+</div>","null","","","","","","",""
"","752","image-keyboard-response","109","2.0.0","110323","p4t2a7cphcu","smaller","kangaroo","To see how object recognition interferes with our ability to detect the size of an object on the screen. ","No","stimuli/28-Inongruent.jpg","z","","","","","left","z","true"
"","null","html-keyboard-response","110","2.0.0","111226","p4t2a7cphcu","smaller","kangaroo","To see how object recognition interferes with our ability to detect the size of an object on the screen. ","No","<p>Correct!</p>","null","","","","","","",""
"","null","html-keyboard-response","111","2.0.0","112228","p4t2a7cphcu","smaller","kangaroo","To see how object recognition interferes with our ability to detect the size of an object on the screen. ","No","<div style=""font-size:60px;"">+</div>","null","","","","","","",""
"","998","image-keyboard-response","112","2.0.0","113228","p4t2a7cphcu","smaller","kangaroo","To see how object recognition interferes with our ability to detect the size of an object on the screen. ","No","stimuli/10-Congruent.jpg","m","","","","","right","m","true"
"","null","html-keyboard-response","113","2.0.0","114131","p4t2a7cphcu","smaller","kangaroo","To see how object recognition interferes with our ability to detect the size of an object on the screen. ","No","<p>Correct!</p>","null","","","","","","",""
"","null","html-keyboard-response","114","2.0.0","115134","p4t2a7cphcu","smaller","kangaroo","To see how object recognition interferes with our ability to detect the size of an object on the screen. ","No","<div style=""font-size:60px;"">+</div>","null","","","","","","",""
"","714","image-keyboard-response","115","2.0.0","115850","p4t2a7cphcu","smaller","kangaroo","To see how object recognition interferes with our ability to detect the size of an object on the screen. ","No","stimuli/14-Congruent.jpg","m","","","","","right","m","true"
"","null","html-keyboard-response","116","2.0.0","116752","p4t2a7cphcu","smaller","kangaroo","To see how object recognition interferes with our ability to detect the size of an object on the screen. ","No","<p>Correct!</p>","null","","","","","","",""
"","null","html-keyboard-response","117","2.0.0","117755","p4t2a7cphcu","smaller","kangaroo","To see how object recognition interferes with our ability to detect the size of an object on the screen. ","No","<div style=""font-size:60px;"">+</div>","null","","","","","","",""
"","528","image-keyboard-response","118","2.0.0","118285","p4t2a7cphcu","smaller","kangaroo","To see how object recognition interferes with our ability to detect the size of an object on the screen. ","No","stimuli/13-Inongruent.jpg","z","","","","","left","z","true"
"","null","html-keyboard-response","119","2.0.0","119188","p4t2a7cphcu","smaller","kangaroo","To see how object recognition interferes with our ability to detect the size of an object on the screen. ","No","<p>Correct!</p>","null","","","","","","",""
"","null","html-keyboard-response","120","2.0.0","120190","p4t2a7cphcu","smaller","kangaroo","To see how object recognition interferes with our ability to detect the size of an object on the screen. ","No","<div style=""font-size:60px;"">+</div>","null","","","","","","",""
"","1569","image-keyboard-response","121","2.0.0","121761","p4t2a7cphcu","smaller","kangaroo","To see how object recognition interferes with our ability to detect the size of an object on the screen. ","No","stimuli/18-Congruent.jpg","z","","","","","right","m","false"
"","null","html-keyboard-response","122","2.0.0","126764","p4t2a7cphcu","smaller","kangaroo","To see how object recognition interferes with our ability to detect the size of an object on the screen. ","No","<p>Incorrect.</p><p>Remember to select the <b>smaller</b> image.</p><p>Continuing in 5 seconds...</p>","null","","","","","","",""
"","null","html-keyboard-response","123","2.0.0","127767","p4t2a7cphcu","smaller","kangaroo","To see how object recognition interferes with our ability to detect the size of an object on the screen. ","No","<div style=""font-size:60px;"">+</div>","null","","","","","","",""
"","653","image-keyboard-response","124","2.0.0","128422","p4t2a7cphcu","smaller","kangaroo","To see how object recognition interferes with our ability to detect the size of an object on the screen. ","No","stimuli/8-Inongruent.jpg","z","","","","","left","z","true"
"","null","html-keyboard-response","125","2.0.0","129324","p4t2a7cphcu","smaller","kangaroo","To see how object recognition interferes with our ability to detect the size of an object on the screen. ","No","<p>Correct!</p>","null","","","","","","",""
"","null","html-keyboard-response","126","2.0.0","130326","p4t2a7cphcu","smaller","kangaroo","To see how object recognition interferes with our ability to detect the size of an object on the screen. ","No","<div style=""font-size:60px;"">+</div>","null","","","","","","",""
"","643","image-keyboard-response","127","2.0.0","130971","p4t2a7cphcu","smaller","kangaroo","To see how object recognition interferes with our ability to detect the size of an object on the screen. ","No","stimuli/26-Inongruent.jpg","z","","","","","left","z","true"
"","null","html-keyboard-response","128","2.0.0","131873","p4t2a7cphcu","smaller","kangaroo","To see how object recognition interferes with our ability to detect the size of an object on the screen. ","No","<p>Correct!</p>","null","","","","","","",""
"","null","html-keyboard-response","129","2.0.0","132876","p4t2a7cphcu","smaller","kangaroo","To see how object recognition interferes with our ability to detect the size of an object on the screen. ","No","<div style=""font-size:60px;"">+</div>","null","","","","","","",""
"","689","image-keyboard-response","130","2.0.0","133567","p4t2a7cphcu","smaller","kangaroo","To see how object recognition interferes with our ability to detect the size of an object on the screen. ","No","stimuli/29-Congruent.jpg","m","","","","","right","m","true"
"","null","html-keyboard-response","131","2.0.0","134469","p4t2a7cphcu","smaller","kangaroo","To see how object recognition interferes with our ability to detect the size of an object on the screen. ","No","<p>Correct!</p>","null","","","","","","",""
"","null","html-keyboard-response","132","2.0.0","135472","p4t2a7cphcu","smaller","kangaroo","To see how object recognition interferes with our ability to detect the size of an object on the screen. ","No","<div style=""font-size:60px;"">+</div>","null","","","","","","",""
"","1538","image-keyboard-response","133","2.0.0","137012","p4t2a7cphcu","smaller","kangaroo","To see how object recognition interferes with our ability to detect the size of an object on the screen. ","No","stimuli/25-Inongruent.jpg","z","","","","","left","z","true"
"","null","html-keyboard-response","134","2.0.0","137914","p4t2a7cphcu","smaller","kangaroo","To see how object recognition interferes with our ability to detect the size of an object on the screen. ","No","<p>Correct!</p>","null","","","","","","",""
"","null","html-keyboard-response","135","2.0.0","138917","p4t2a7cphcu","smaller","kangaroo","To see how object recognition interferes with our ability to detect the size of an object on the screen. ","No","<div style=""font-size:60px;"">+</div>","null","","","","","","",""
"","2303","image-keyboard-response","136","2.0.0","141221","p4t2a7cphcu","smaller","kangaroo","To see how object recognition interferes with our ability to detect the size of an object on the screen. ","No","stimuli/4-Congruent.jpg","m","","","","","right","m","true"
"","null","html-keyboard-response","137","2.0.0","142124","p4t2a7cphcu","smaller","kangaroo","To see how object recognition interferes with our ability to detect the size of an object on the screen. ","No","<p>Correct!</p>","null","","","","","","",""
"","null","html-keyboard-response","138","2.0.0","143127","p4t2a7cphcu","smaller","kangaroo","To see how object recognition interferes with our ability to detect the size of an object on the screen. ","No","<div style=""font-size:60px;"">+</div>","null","","","","","","",""
"","676","image-keyboard-response","139","2.0.0","143806","p4t2a7cphcu","smaller","kangaroo","To see how object recognition interferes with our ability to detect the size of an object on the screen. ","No","stimuli/32-Inongruent.jpg","z","","","","","left","z","true"
"","null","html-keyboard-response","140","2.0.0","144708","p4t2a7cphcu","smaller","kangaroo","To see how object recognition interferes with our ability to detect the size of an object on the screen. ","No","<p>Correct!</p>","null","","","","","","",""
"","null","html-keyboard-response","141","2.0.0","145711","p4t2a7cphcu","smaller","kangaroo","To see how object recognition interferes with our ability to detect the size of an object on the screen. ","No","<div style=""font-size:60px;"">+</div>","null","","","","","","",""
"","837","image-keyboard-response","142","2.0.0","146550","p4t2a7cphcu","smaller","kangaroo","To see how object recognition interferes with our ability to detect the size of an object on the screen. ","No","stimuli/36-Inongruent.jpg","z","","","","","left","z","true"
"","null","html-keyboard-response","143","2.0.0","147453","p4t2a7cphcu","smaller","kangaroo","To see how object recognition interferes with our ability to detect the size of an object on the screen. ","No","<p>Correct!</p>","null","","","","","","",""
"","null","html-keyboard-response","144","2.0.0","148456","p4t2a7cphcu","smaller","kangaroo","To see how object recognition interferes with our ability to detect the size of an object on the screen. ","No","<div style=""font-size:60px;"">+</div>","null","","","","","","",""
"","546","image-keyboard-response","145","2.0.0","149004","p4t2a7cphcu","smaller","kangaroo","To see how object recognition interferes with our ability to detect the size of an object on the screen. ","No","stimuli/34-Inongruent.jpg","z","","","","","left","z","true"
"","null","html-keyboard-response","146","2.0.0","149906","p4t2a7cphcu","smaller","kangaroo","To see how object recognition interferes with our ability to detect the size of an object on the screen. ","No","<p>Correct!</p>","null","","","","","","",""
"","null","html-keyboard-response","147","2.0.0","150909","p4t2a7cphcu","smaller","kangaroo","To see how object recognition interferes with our ability to detect the size of an object on the screen. ","No","<div style=""font-size:60px;"">+</div>","null","","","","","","",""
"","559","image-keyboard-response","148","2.0.0","151470","p4t2a7cphcu","smaller","kangaroo","To see how object recognition interferes with our ability to detect the size of an object on the screen. ","No","stimuli/34-Congruent.jpg","m","","","","","right","m","true"
"","null","html-keyboard-response","149","2.0.0","152372","p4t2a7cphcu","smaller","kangaroo","To see how object recognition interferes with our ability to detect the size of an object on the screen. ","No","<p>Correct!</p>","null","","","","","","",""
"","null","html-keyboard-response","150","2.0.0","153375","p4t2a7cphcu","smaller","kangaroo","To see how object recognition interferes with our ability to detect the size of an object on the screen. ","No","<div style=""font-size:60px;"">+</div>","null","","","","","","",""
"","553","image-keyboard-response","151","2.0.0","153930","p4t2a7cphcu","smaller","kangaroo","To see how object recognition interferes with our ability to detect the size of an object on the screen. ","No","stimuli/19-Inongruent.jpg","z","","","","","left","z","true"
"","null","html-keyboard-response","152","2.0.0","154832","p4t2a7cphcu","smaller","kangaroo","To see how object recognition interferes with our ability to detect the size of an object on the screen. ","No","<p>Correct!</p>","null","","","","","","",""
"","null","html-keyboard-response","153","2.0.0","155835","p4t2a7cphcu","smaller","kangaroo","To see how object recognition interferes with our ability to detect the size of an object on the screen. ","No","<div style=""font-size:60px;"">+</div>","null","","","","","","",""
"","372","image-keyboard-response","154","2.0.0","156209","p4t2a7cphcu","smaller","kangaroo","To see how object recognition interferes with our ability to detect the size of an object on the screen. ","No","stimuli/6-Inongruent.jpg","z","","","","","left","z","true"
"","null","html-keyboard-response","155","2.0.0","157112","p4t2a7cphcu","smaller","kangaroo","To see how object recognition interferes with our ability to detect the size of an object on the screen. ","No","<p>Correct!</p>","null","","","","","","",""
"","null","html-keyboard-response","156","2.0.0","158115","p4t2a7cphcu","smaller","kangaroo","To see how object recognition interferes with our ability to detect the size of an object on the screen. ","No","<div style=""font-size:60px;"">+</div>","null","","","","","","",""
"","441","image-keyboard-response","157","2.0.0","158558","p4t2a7cphcu","smaller","kangaroo","To see how object recognition interferes with our ability to detect the size of an object on the screen. ","No","stimuli/31-Inongruent.jpg","z","","","","","left","z","true"
"","null","html-keyboard-response","158","2.0.0","159460","p4t2a7cphcu","smaller","kangaroo","To see how object recognition interferes with our ability to detect the size of an object on the screen. ","No","<p>Correct!</p>","null","","","","","","",""
"","null","html-keyboard-response","159","2.0.0","160463","p4t2a7cphcu","smaller","kangaroo","To see how object recognition interferes with our ability to detect the size of an object on the screen. ","No","<div style=""font-size:60px;"">+</div>","null","","","","","","",""
"","745","image-keyboard-response","160","2.0.0","161210","p4t2a7cphcu","smaller","kangaroo","To see how object recognition interferes with our ability to detect the size of an object on the screen. ","No","stimuli/1-Congruent.jpg","m","","","","","right","m","true"
"","null","html-keyboard-response","161","2.0.0","162113","p4t2a7cphcu","smaller","kangaroo","To see how object recognition interferes with our ability to detect the size of an object on the screen. ","No","<p>Correct!</p>","null","","","","","","",""
"","null","html-keyboard-response","162","2.0.0","163115","p4t2a7cphcu","smaller","kangaroo","To see how object recognition interferes with our ability to detect the size of an object on the screen. ","No","<div style=""font-size:60px;"">+</div>","null","","","","","","",""
"","525","image-keyboard-response","163","2.0.0","163643","p4t2a7cphcu","smaller","kangaroo","To see how object recognition interferes with our ability to detect the size of an object on the screen. ","No","stimuli/2-Inongruent.jpg","z","","","","","left","z","true"
"","null","html-keyboard-response","164","2.0.0","164545","p4t2a7cphcu","smaller","kangaroo","To see how object recognition interferes with our ability to detect the size of an object on the screen. ","No","<p>Correct!</p>","null","","","","","","",""
"","null","html-keyboard-response","165","2.0.0","165548","p4t2a7cphcu","smaller","kangaroo","To see how object recognition interferes with our ability to detect the size of an object on the screen. ","No","<div style=""font-size:60px;"">+</div>","null","","","","","","",""
"","485","image-keyboard-response","166","2.0.0","166035","p4t2a7cphcu","smaller","kangaroo","To see how object recognition interferes with our ability to detect the size of an object on the screen. ","No","stimuli/5-Inongruent.jpg","z","","","","","left","z","true"
"","null","html-keyboard-response","167","2.0.0","166938","p4t2a7cphcu","smaller","kangaroo","To see how object recognition interferes with our ability to detect the size of an object on the screen. ","No","<p>Correct!</p>","null","","","","","","",""
"","null","html-keyboard-response","168","2.0.0","167941","p4t2a7cphcu","smaller","kangaroo","To see how object recognition interferes with our ability to detect the size of an object on the screen. ","No","<div style=""font-size:60px;"">+</div>","null","","","","","","",""
"","1196","image-keyboard-response","169","2.0.0","169138","p4t2a7cphcu","smaller","kangaroo","To see how object recognition interferes with our ability to detect the size of an object on the screen. ","No","stimuli/34-Inongruent.jpg","z","","","","","left","z","true"
"","null","html-keyboard-response","170","2.0.0","170041","p4t2a7cphcu","smaller","kangaroo","To see how object recognition interferes with our ability to detect the size of an object on the screen. ","No","<p>Correct!</p>","null","","","","","","",""
"","null","html-keyboard-response","171","2.0.0","171043","p4t2a7cphcu","smaller","kangaroo","To see how object recognition interferes with our ability to detect the size of an object on the screen. ","No","<div style=""font-size:60px;"">+</div>","null","","","","","","",""
"","688","image-keyboard-response","172","2.0.0","171734","p4t2a7cphcu","smaller","kangaroo","To see how object recognition interferes with our ability to detect the size of an object on the screen. ","No","stimuli/21-Inongruent.jpg","z","","","","","left","z","true"
"","null","html-keyboard-response","173","2.0.0","172636","p4t2a7cphcu","smaller","kangaroo","To see how object recognition interferes with our ability to detect the size of an object on the screen. ","No","<p>Correct!</p>","null","","","","","","",""
"","null","html-keyboard-response","174","2.0.0","173640","p4t2a7cphcu","smaller","kangaroo","To see how object recognition interferes with our ability to detect the size of an object on the screen. ","No","<div style=""font-size:60px;"">+</div>","null","","","","","","",""
"","549","image-keyboard-response","175","2.0.0","174190","p4t2a7cphcu","smaller","kangaroo","To see how object recognition interferes with our ability to detect the size of an object on the screen. ","No","stimuli/22-Inongruent.jpg","z","","","","","left","z","true"
"","null","html-keyboard-response","176","2.0.0","175092","p4t2a7cphcu","smaller","kangaroo","To see how object recognition interferes with our ability to detect the size of an object on the screen. ","No","<p>Correct!</p>","null","","","","","","",""
"","null","html-keyboard-response","177","2.0.0","176095","p4t2a7cphcu","smaller","kangaroo","To see how object recognition interferes with our ability to detect the size of an object on the screen. ","No","<div style=""font-size:60px;"">+</div>","null","","","","","","",""
"","592","image-keyboard-response","178","2.0.0","176689","p4t2a7cphcu","smaller","kangaroo","To see how object recognition interferes with our ability to detect the size of an object on the screen. ","No","stimuli/33-Congruent.jpg","m","","","","","right","m","true"
"","null","html-keyboard-response","179","2.0.0","177592","p4t2a7cphcu","smaller","kangaroo","To see how object recognition interferes with our ability to detect the size of an object on the screen. ","No","<p>Correct!</p>","null","","","","","","",""
"","null","html-keyboard-response","180","2.0.0","178594","p4t2a7cphcu","smaller","kangaroo","To see how object recognition interferes with our ability to detect the size of an object on the screen. ","No","<div style=""font-size:60px;"">+</div>","null","","","","","","",""
"","629","image-keyboard-response","181","2.0.0","179225","p4t2a7cphcu","smaller","kangaroo","To see how object recognition interferes with our ability to detect the size of an object on the screen. ","No","stimuli/15-Congruent.jpg","m","","","","","right","m","true"
"","null","html-keyboard-response","182","2.0.0","180128","p4t2a7cphcu","smaller","kangaroo","To see how object recognition interferes with our ability to detect the size of an object on the screen. ","No","<p>Correct!</p>","null","","","","","","",""
"","null","html-keyboard-response","183","2.0.0","181131","p4t2a7cphcu","smaller","kangaroo","To see how object recognition interferes with our ability to detect the size of an object on the screen. ","No","<div style=""font-size:60px;"">+</div>","null","","","","","","",""
"","460","image-keyboard-response","184","2.0.0","181594","p4t2a7cphcu","smaller","kangaroo","To see how object recognition interferes with our ability to detect the size of an object on the screen. ","No","stimuli/35-Inongruent.jpg","z","","","","","left","z","true"
"","null","html-keyboard-response","185","2.0.0","182496","p4t2a7cphcu","smaller","kangaroo","To see how object recognition interferes with our ability to detect the size of an object on the screen. ","No","<p>Correct!</p>","null","","","","","","",""
"","null","html-keyboard-response","186","2.0.0","183499","p4t2a7cphcu","smaller","kangaroo","To see how object recognition interferes with our ability to detect the size of an object on the screen. ","No","<div style=""font-size:60px;"">+</div>","null","","","","","","",""
"","483","image-keyboard-response","187","2.0.0","183983","p4t2a7cphcu","smaller","kangaroo","To see how object recognition interferes with our ability to detect the size of an object on the screen. ","No","stimuli/16-Inongruent.jpg","z","","","","","left","z","true"
"","null","html-keyboard-response","188","2.0.0","184886","p4t2a7cphcu","smaller","kangaroo","To see how object recognition interferes with our ability to detect the size of an object on the screen. ","No","<p>Correct!</p>","null","","","","","","",""
"","null","html-keyboard-response","189","2.0.0","185888","p4t2a7cphcu","smaller","kangaroo","To see how object recognition interferes with our ability to detect the size of an object on the screen. ","No","<div style=""font-size:60px;"">+</div>","null","","","","","","",""
"","534","image-keyboard-response","190","2.0.0","186424","p4t2a7cphcu","smaller","kangaroo","To see how object recognition interferes with our ability to detect the size of an object on the screen. ","No","stimuli/3-Congruent.jpg","m","","","","","right","m","true"
"","null","html-keyboard-response","191","2.0.0","187326","p4t2a7cphcu","smaller","kangaroo","To see how object recognition interferes with our ability to detect the size of an object on the screen. ","No","<p>Correct!</p>","null","","","","","","",""
"","null","html-keyboard-response","192","2.0.0","188328","p4t2a7cphcu","smaller","kangaroo","To see how object recognition interferes with our ability to detect the size of an object on the screen. ","No","<div style=""font-size:60px;"">+</div>","null","","","","","","",""
"","369","image-keyboard-response","193","2.0.0","188700","p4t2a7cphcu","smaller","kangaroo","To see how object recognition interferes with our ability to detect the size of an object on the screen. ","No","stimuli/19-Inongruent.jpg","z","","","","","left","z","true"
"","null","html-keyboard-response","194","2.0.0","189602","p4t2a7cphcu","smaller","kangaroo","To see how object recognition interferes with our ability to detect the size of an object on the screen. ","No","<p>Correct!</p>","null","","","","","","",""
"","null","html-keyboard-response","195","2.0.0","190605","p4t2a7cphcu","smaller","kangaroo","To see how object recognition interferes with our ability to detect the size of an object on the screen. ","No","<div style=""font-size:60px;"">+</div>","null","","","","","","",""
"","477","image-keyboard-response","196","2.0.0","191084","p4t2a7cphcu","smaller","kangaroo","To see how object recognition interferes with our ability to detect the size of an object on the screen. ","No","stimuli/2-Congruent.jpg","m","","","","","right","m","true"
"","null","html-keyboard-response","197","2.0.0","191987","p4t2a7cphcu","smaller","kangaroo","To see how object recognition interferes with our ability to detect the size of an object on the screen. ","No","<p>Correct!</p>","null","","","","","","",""
"","null","html-keyboard-response","198","2.0.0","192990","p4t2a7cphcu","smaller","kangaroo","To see how object recognition interferes with our ability to detect the size of an object on the screen. ","No","<div style=""font-size:60px;"">+</div>","null","","","","","","",""
"","510","image-keyboard-response","199","2.0.0","193501","p4t2a7cphcu","smaller","kangaroo","To see how object recognition interferes with our ability to detect the size of an object on the screen. ","No","stimuli/22-Congruent.jpg","z","","","","","right","m","false"
"","null","html-keyboard-response","200","2.0.0","198503","p4t2a7cphcu","smaller","kangaroo","To see how object recognition interferes with our ability to detect the size of an object on the screen. ","No","<p>Incorrect.</p><p>Remember to select the <b>smaller</b> image.</p><p>Continuing in 5 seconds...</p>","null","","","","","","",""
"","null","html-keyboard-response","201","2.0.0","199506","p4t2a7cphcu","smaller","kangaroo","To see how object recognition interferes with our ability to detect the size of an object on the screen. ","No","<div style=""font-size:60px;"">+</div>","null","","","","","","",""
"","1438","image-keyboard-response","202","2.0.0","200946","p4t2a7cphcu","smaller","kangaroo","To see how object recognition interferes with our ability to detect the size of an object on the screen. ","No","stimuli/27-Inongruent.jpg","z","","","","","left","z","true"
"","null","html-keyboard-response","203","2.0.0","201848","p4t2a7cphcu","smaller","kangaroo","To see how object recognition interferes with our ability to detect the size of an object on the screen. ","No","<p>Correct!</p>","null","","","","","","",""
"","null","html-keyboard-response","204","2.0.0","202851","p4t2a7cphcu","smaller","kangaroo","To see how object recognition interferes with our ability to detect the size of an object on the screen. ","No","<div style=""font-size:60px;"">+</div>","null","","","","","","",""
"","583","image-keyboard-response","205","2.0.0","203436","p4t2a7cphcu","smaller","kangaroo","To see how object recognition interferes with our ability to detect the size of an object on the screen. ","No","stimuli/3-Inongruent.jpg","z","","","","","left","z","true"
"","null","html-keyboard-response","206","2.0.0","204339","p4t2a7cphcu","smaller","kangaroo","To see how object recognition interferes with our ability to detect the size of an object on the screen. ","No","<p>Correct!</p>","null","","","","","","",""
"","null","html-keyboard-response","207","2.0.0","205341","p4t2a7cphcu","smaller","kangaroo","To see how object recognition interferes with our ability to detect the size of an object on the screen. ","No","<div style=""font-size:60px;"">+</div>","null","","","","","","",""
"","747","image-keyboard-response","208","2.0.0","206091","p4t2a7cphcu","smaller","kangaroo","To see how object recognition interferes with our ability to detect the size of an object on the screen. ","No","stimuli/5-Inongruent.jpg","z","","","","","left","z","true"
"","null","html-keyboard-response","209","2.0.0","206993","p4t2a7cphcu","smaller","kangaroo","To see how object recognition interferes with our ability to detect the size of an object on the screen. ","No","<p>Correct!</p>","null","","","","","","",""
"","null","html-keyboard-response","210","2.0.0","207996","p4t2a7cphcu","smaller","kangaroo","To see how object recognition interferes with our ability to detect the size of an object on the screen. ","No","<div style=""font-size:60px;"">+</div>","null","","","","","","",""
"","577","image-keyboard-response","211","2.0.0","208575","p4t2a7cphcu","smaller","kangaroo","To see how object recognition interferes with our ability to detect the size of an object on the screen. ","No","stimuli/22-Inongruent.jpg","z","","","","","left","z","true"
"","null","html-keyboard-response","212","2.0.0","209477","p4t2a7cphcu","smaller","kangaroo","To see how object recognition interferes with our ability to detect the size of an object on the screen. ","No","<p>Correct!</p>","null","","","","","","",""
"","null","html-keyboard-response","213","2.0.0","210479","p4t2a7cphcu","smaller","kangaroo","To see how object recognition interferes with our ability to detect the size of an object on the screen. ","No","<div style=""font-size:60px;"">+</div>","null","","","","","","",""
"","584","image-keyboard-response","214","2.0.0","211065","p4t2a7cphcu","smaller","kangaroo","To see how object recognition interferes with our ability to detect the size of an object on the screen. ","No","stimuli/23-Inongruent.jpg","z","","","","","left","z","true"
"","null","html-keyboard-response","215","2.0.0","211967","p4t2a7cphcu","smaller","kangaroo","To see how object recognition interferes with our ability to detect the size of an object on the screen. ","No","<p>Correct!</p>","null","","","","","","",""
"","null","html-keyboard-response","216","2.0.0","212970","p4t2a7cphcu","smaller","kangaroo","To see how object recognition interferes with our ability to detect the size of an object on the screen. ","No","<div style=""font-size:60px;"">+</div>","null","","","","","","",""
"","578","image-keyboard-response","217","2.0.0","213550","p4t2a7cphcu","smaller","kangaroo","To see how object recognition interferes with our ability to detect the size of an object on the screen. ","No","stimuli/13-Congruent.jpg","m","","","","","right","m","true"
"","null","html-keyboard-response","218","2.0.0","214453","p4t2a7cphcu","smaller","kangaroo","To see how object recognition interferes with our ability to detect the size of an object on the screen. ","No","<p>Correct!</p>","null","","","","","","",""
"","null","html-keyboard-response","219","2.0.0","215455","p4t2a7cphcu","smaller","kangaroo","To see how object recognition interferes with our ability to detect the size of an object on the screen. ","No","<div style=""font-size:60px;"">+</div>","null","","","","","","",""
"","452","image-keyboard-response","220","2.0.0","215908","p4t2a7cphcu","smaller","kangaroo","To see how object recognition interferes with our ability to detect the size of an object on the screen. ","No","stimuli/20-Inongruent.jpg","z","","","","","left","z","true"
"","null","html-keyboard-response","221","2.0.0","216811","p4t2a7cphcu","smaller","kangaroo","To see how object recognition interferes with our ability to detect the size of an object on the screen. ","No","<p>Correct!</p>","null","","","","","","",""
"","null","html-keyboard-response","222","2.0.0","217813","p4t2a7cphcu","smaller","kangaroo","To see how object recognition interferes with our ability to detect the size of an object on the screen. ","No","<div style=""font-size:60px;"">+</div>","null","","","","","","",""
"","481","image-keyboard-response","223","2.0.0","218296","p4t2a7cphcu","smaller","kangaroo","To see how object recognition interferes with our ability to detect the size of an object on the screen. ","No","stimuli/20-Congruent.jpg","m","","","","","right","m","true"
"","null","html-keyboard-response","224","2.0.0","219199","p4t2a7cphcu","smaller","kangaroo","To see how object recognition interferes with our ability to detect the size of an object on the screen. ","No","<p>Correct!</p>","null","","","","","","",""
"","null","html-keyboard-response","225","2.0.0","220201","p4t2a7cphcu","smaller","kangaroo","To see how object recognition interferes with our ability to detect the size of an object on the screen. ","No","<div style=""font-size:60px;"">+</div>","null","","","","","","",""
"","492","image-keyboard-response","226","2.0.0","220695","p4t2a7cphcu","smaller","kangaroo","To see how object recognition interferes with our ability to detect the size of an object on the screen. ","No","stimuli/14-Inongruent.jpg","z","","","","","left","z","true"
"","null","html-keyboard-response","227","2.0.0","221598","p4t2a7cphcu","smaller","kangaroo","To see how object recognition interferes with our ability to detect the size of an object on the screen. ","No","<p>Correct!</p>","null","","","","","","",""
"","null","html-keyboard-response","228","2.0.0","222600","p4t2a7cphcu","smaller","kangaroo","To see how object recognition interferes with our ability to detect the size of an object on the screen. ","No","<div style=""font-size:60px;"">+</div>","null","","","","","","",""
"","822","image-keyboard-response","229","2.0.0","223424","p4t2a7cphcu","smaller","kangaroo","To see how object recognition interferes with our ability to detect the size of an object on the screen. ","No","stimuli/20-Congruent.jpg","m","","","","","right","m","true"
"","null","html-keyboard-response","230","2.0.0","224327","p4t2a7cphcu","smaller","kangaroo","To see how object recognition interferes with our ability to detect the size of an object on the screen. ","No","<p>Correct!</p>","null","","","","","","",""
"","null","html-keyboard-response","231","2.0.0","225329","p4t2a7cphcu","smaller","kangaroo","To see how object recognition interferes with our ability to detect the size of an object on the screen. ","No","<div style=""font-size:60px;"">+</div>","null","","","","","","",""
"","482","image-keyboard-response","232","2.0.0","225814","p4t2a7cphcu","smaller","kangaroo","To see how object recognition interferes with our ability to detect the size of an object on the screen. ","No","stimuli/2-Inongruent.jpg","z","","","","","left","z","true"
"","null","html-keyboard-response","233","2.0.0","226717","p4t2a7cphcu","smaller","kangaroo","To see how object recognition interferes with our ability to detect the size of an object on the screen. ","No","<p>Correct!</p>","null","","","","","","",""
"","null","html-keyboard-response","234","2.0.0","227719","p4t2a7cphcu","smaller","kangaroo","To see how object recognition interferes with our ability to detect the size of an object on the screen. ","No","<div style=""font-size:60px;"">+</div>","null","","","","","","",""
"","467","image-keyboard-response","235","2.0.0","228189","p4t2a7cphcu","smaller","kangaroo","To see how object recognition interferes with our ability to detect the size of an object on the screen. ","No","stimuli/34-Congruent.jpg","m","","","","","right","m","true"
"","null","html-keyboard-response","236","2.0.0","229091","p4t2a7cphcu","smaller","kangaroo","To see how object recognition interferes with our ability to detect the size of an object on the screen. ","No","<p>Correct!</p>","null","","","","","","",""
"","null","html-keyboard-response","237","2.0.0","230093","p4t2a7cphcu","smaller","kangaroo","To see how object recognition interferes with our ability to detect the size of an object on the screen. ","No","<div style=""font-size:60px;"">+</div>","null","","","","","","",""
"","653","image-keyboard-response","238","2.0.0","230748","p4t2a7cphcu","smaller","kangaroo","To see how object recognition interferes with our ability to detect the size of an object on the screen. ","No","stimuli/17-Inongruent.jpg","z","","","","","left","z","true"
"","null","html-keyboard-response","239","2.0.0","231651","p4t2a7cphcu","smaller","kangaroo","To see how object recognition interferes with our ability to detect the size of an object on the screen. ","No","<p>Correct!</p>","null","","","","","","",""
"","null","html-keyboard-response","240","2.0.0","232654","p4t2a7cphcu","smaller","kangaroo","To see how object recognition interferes with our ability to detect the size of an object on the screen. ","No","<div style=""font-size:60px;"">+</div>","null","","","","","","",""
"","420","image-keyboard-response","241","2.0.0","233076","p4t2a7cphcu","smaller","kangaroo","To see how object recognition interferes with our ability to detect the size of an object on the screen. ","No","stimuli/35-Inongruent.jpg","z","","","","","left","z","true"
"","null","html-keyboard-response","242","2.0.0","233978","p4t2a7cphcu","smaller","kangaroo","To see how object recognition interferes with our ability to detect the size of an object on the screen. ","No","<p>Correct!</p>","null","","","","","","",""
"","null","html-keyboard-response","243","2.0.0","234981","p4t2a7cphcu","smaller","kangaroo","To see how object recognition interferes with our ability to detect the size of an object on the screen. ","No","<div style=""font-size:60px;"">+</div>","null","","","","","","",""
"","385","image-keyboard-response","244","2.0.0","235368","p4t2a7cphcu","smaller","kangaroo","To see how object recognition interferes with our ability to detect the size of an object on the screen. ","No","stimuli/11-Inongruent.jpg","z","","","","","left","z","true"
"","null","html-keyboard-response","245","2.0.0","236270","p4t2a7cphcu","smaller","kangaroo","To see how object recognition interferes with our ability to detect the size of an object on the screen. ","No","<p>Correct!</p>","null","","","","","","",""
"","null","html-keyboard-response","246","2.0.0","237273","p4t2a7cphcu","smaller","kangaroo","To see how object recognition interferes with our ability to detect the size of an object on the screen. ","No","<div style=""font-size:60px;"">+</div>","null","","","","","","",""
"","483","image-keyboard-response","247","2.0.0","237758","p4t2a7cphcu","smaller","kangaroo","To see how object recognition interferes with our ability to detect the size of an object on the screen. ","No","stimuli/24-Congruent.jpg","m","","","","","right","m","true"
"","null","html-keyboard-response","248","2.0.0","238660","p4t2a7cphcu","smaller","kangaroo","To see how object recognition interferes with our ability to detect the size of an object on the screen. ","No","<p>Correct!</p>","null","","","","","","",""
"","null","html-keyboard-response","249","2.0.0","239663","p4t2a7cphcu","smaller","kangaroo","To see how object recognition interferes with our ability to detect the size of an object on the screen. ","No","<div style=""font-size:60px;"">+</div>","null","","","","","","",""
"","430","image-keyboard-response","250","2.0.0","240095","p4t2a7cphcu","smaller","kangaroo","To see how object recognition interferes with our ability to detect the size of an object on the screen. ","No","stimuli/25-Congruent.jpg","m","","","","","right","m","true"
"","null","html-keyboard-response","251","2.0.0","240998","p4t2a7cphcu","smaller","kangaroo","To see how object recognition interferes with our ability to detect the size of an object on the screen. ","No","<p>Correct!</p>","null","","","","","","",""
"","null","html-keyboard-response","252","2.0.0","242001","p4t2a7cphcu","smaller","kangaroo","To see how object recognition interferes with our ability to detect the size of an object on the screen. ","No","<div style=""font-size:60px;"">+</div>","null","","","","","","",""
"","425","image-keyboard-response","253","2.0.0","242428","p4t2a7cphcu","smaller","kangaroo","To see how object recognition interferes with our ability to detect the size of an object on the screen. ","No","stimuli/15-Congruent.jpg","m","","","","","right","m","true"
"","null","html-keyboard-response","254","2.0.0","243330","p4t2a7cphcu","smaller","kangaroo","To see how object recognition interferes with our ability to detect the size of an object on the screen. ","No","<p>Correct!</p>","null","","","","","","",""
"","null","html-keyboard-response","255","2.0.0","244333","p4t2a7cphcu","smaller","kangaroo","To see how object recognition interferes with our ability to detect the size of an object on the screen. ","No","<div style=""font-size:60px;"">+</div>","null","","","","","","",""
"","739","image-keyboard-response","256","2.0.0","245075","p4t2a7cphcu","smaller","kangaroo","To see how object recognition interferes with our ability to detect the size of an object on the screen. ","No","stimuli/26-Inongruent.jpg","z","","","","","left","z","true"
"","null","html-keyboard-response","257","2.0.0","245977","p4t2a7cphcu","smaller","kangaroo","To see how object recognition interferes with our ability to detect the size of an object on the screen. ","No","<p>Correct!</p>","null","","","","","","",""
"","null","html-keyboard-response","258","2.0.0","246979","p4t2a7cphcu","smaller","kangaroo","To see how object recognition interferes with our ability to detect the size of an object on the screen. ","No","<div style=""font-size:60px;"">+</div>","null","","","","","","",""
"","670","image-keyboard-response","259","2.0.0","247651","p4t2a7cphcu","smaller","kangaroo","To see how object recognition interferes with our ability to detect the size of an object on the screen. ","No","stimuli/21-Congruent.jpg","m","","","","","right","m","true"
"","null","html-keyboard-response","260","2.0.0","248554","p4t2a7cphcu","smaller","kangaroo","To see how object recognition interferes with our ability to detect the size of an object on the screen. ","No","<p>Correct!</p>","null","","","","","","",""
"","null","html-keyboard-response","261","2.0.0","249557","p4t2a7cphcu","smaller","kangaroo","To see how object recognition interferes with our ability to detect the size of an object on the screen. ","No","<div style=""font-size:60px;"">+</div>","null","","","","","","",""
"","473","image-keyboard-response","262","2.0.0","250032","p4t2a7cphcu","smaller","kangaroo","To see how object recognition interferes with our ability to detect the size of an object on the screen. ","No","stimuli/25-Inongruent.jpg","z","","","","","left","z","true"
"","null","html-keyboard-response","263","2.0.0","250934","p4t2a7cphcu","smaller","kangaroo","To see how object recognition interferes with our ability to detect the size of an object on the screen. ","No","<p>Correct!</p>","null","","","","","","",""
"","null","html-keyboard-response","264","2.0.0","251937","p4t2a7cphcu","smaller","kangaroo","To see how object recognition interferes with our ability to detect the size of an object on the screen. ","No","<div style=""font-size:60px;"">+</div>","null","","","","","","",""
"","369","image-keyboard-response","265","2.0.0","252308","p4t2a7cphcu","smaller","kangaroo","To see how object recognition interferes with our ability to detect the size of an object on the screen. ","No","stimuli/28-Congruent.jpg","m","","","","","right","m","true"
"","null","html-keyboard-response","266","2.0.0","253210","p4t2a7cphcu","smaller","kangaroo","To see how object recognition interferes with our ability to detect the size of an object on the screen. ","No","<p>Correct!</p>","null","","","","","","",""
"","null","html-keyboard-response","267","2.0.0","254213","p4t2a7cphcu","smaller","kangaroo","To see how object recognition interferes with our ability to detect the size of an object on the screen. ","No","<div style=""font-size:60px;"">+</div>","null","","","","","","",""
"","396","image-keyboard-response","268","2.0.0","254611","p4t2a7cphcu","smaller","kangaroo","To see how object recognition interferes with our ability to detect the size of an object on the screen. ","No","stimuli/29-Inongruent.jpg","z","","","","","left","z","true"
"","null","html-keyboard-response","269","2.0.0","255513","p4t2a7cphcu","smaller","kangaroo","To see how object recognition interferes with our ability to detect the size of an object on the screen. ","No","<p>Correct!</p>","null","","","","","","",""
"","null","html-keyboard-response","270","2.0.0","256516","p4t2a7cphcu","smaller","kangaroo","To see how object recognition interferes with our ability to detect the size of an object on the screen. ","No","<div style=""font-size:60px;"">+</div>","null","","","","","","",""
"","421","image-keyboard-response","271","2.0.0","256938","p4t2a7cphcu","smaller","kangaroo","To see how object recognition interferes with our ability to detect the size of an object on the screen. ","No","stimuli/22-Congruent.jpg","m","","","","","right","m","true"
"","null","html-keyboard-response","272","2.0.0","257841","p4t2a7cphcu","smaller","kangaroo","To see how object recognition interferes with our ability to detect the size of an object on the screen. ","No","<p>Correct!</p>","null","","","","","","",""
"","null","html-keyboard-response","273","2.0.0","258844","p4t2a7cphcu","smaller","kangaroo","To see how object recognition interferes with our ability to detect the size of an object on the screen. ","No","<div style=""font-size:60px;"">+</div>","null","","","","","","",""
"","371","image-keyboard-response","274","2.0.0","259217","p4t2a7cphcu","smaller","kangaroo","To see how object recognition interferes with our ability to detect the size of an object on the screen. ","No","stimuli/10-Inongruent.jpg","z","","","","","left","z","true"
"","null","html-keyboard-response","275","2.0.0","260120","p4t2a7cphcu","smaller","kangaroo","To see how object recognition interferes with our ability to detect the size of an object on the screen. ","No","<p>Correct!</p>","null","","","","","","",""
"","null","html-keyboard-response","276","2.0.0","261123","p4t2a7cphcu","smaller","kangaroo","To see how object recognition interferes with our ability to detect the size of an object on the screen. ","No","<div style=""font-size:60px;"">+</div>","null","","","","","","",""
"","370","image-keyboard-response","277","2.0.0","261495","p4t2a7cphcu","smaller","kangaroo","To see how object recognition interferes with our ability to detect the size of an object on the screen. ","No","stimuli/18-Inongruent.jpg","z","","","","","left","z","true"
"","null","html-keyboard-response","278","2.0.0","262397","p4t2a7cphcu","smaller","kangaroo","To see how object recognition interferes with our ability to detect the size of an object on the screen. ","No","<p>Correct!</p>","null","","","","","","",""
"","null","html-keyboard-response","279","2.0.0","263400","p4t2a7cphcu","smaller","kangaroo","To see how object recognition interferes with our ability to detect the size of an object on the screen. ","No","<div style=""font-size:60px;"">+</div>","null","","","","","","",""
"","384","image-keyboard-response","280","2.0.0","263786","p4t2a7cphcu","smaller","kangaroo","To see how object recognition interferes with our ability to detect the size of an object on the screen. ","No","stimuli/17-Inongruent.jpg","z","","","","","left","z","true"
"","null","html-keyboard-response","281","2.0.0","264687","p4t2a7cphcu","smaller","kangaroo","To see how object recognition interferes with our ability to detect the size of an object on the screen. ","No","<p>Correct!</p>","null","","","","","","",""
"","null","html-keyboard-response","282","2.0.0","265689","p4t2a7cphcu","smaller","kangaroo","To see how object recognition interferes with our ability to detect the size of an object on the screen. ","No","<div style=""font-size:60px;"">+</div>","null","","","","","","",""
"","502","image-keyboard-response","283","2.0.0","266193","p4t2a7cphcu","smaller","kangaroo","To see how object recognition interferes with our ability to detect the size of an object on the screen. ","No","stimuli/19-Congruent.jpg","m","","","","","right","m","true"
"","null","html-keyboard-response","284","2.0.0","267095","p4t2a7cphcu","smaller","kangaroo","To see how object recognition interferes with our ability to detect the size of an object on the screen. ","No","<p>Correct!</p>","null","","","","","","",""
"","null","html-keyboard-response","285","2.0.0","268097","p4t2a7cphcu","smaller","kangaroo","To see how object recognition interferes with our ability to detect the size of an object on the screen. ","No","<div style=""font-size:60px;"">+</div>","null","","","","","","",""
"","967","image-keyboard-response","286","2.0.0","269066","p4t2a7cphcu","smaller","kangaroo","To see how object recognition interferes with our ability to detect the size of an object on the screen. ","No","stimuli/35-Congruent.jpg","m","","","","","right","m","true"
"","null","html-keyboard-response","287","2.0.0","269968","p4t2a7cphcu","smaller","kangaroo","To see how object recognition interferes with our ability to detect the size of an object on the screen. ","No","<p>Correct!</p>","null","","","","","","",""
"","null","html-keyboard-response","288","2.0.0","270971","p4t2a7cphcu","smaller","kangaroo","To see how object recognition interferes with our ability to detect the size of an object on the screen. ","No","<div style=""font-size:60px;"">+</div>","null","","","","","","",""
"","707","image-keyboard-response","289","2.0.0","271679","p4t2a7cphcu","smaller","kangaroo","To see how object recognition interferes with our ability to detect the size of an object on the screen. ","No","stimuli/33-Inongruent.jpg","z","","","","","left","z","true"
"","null","html-keyboard-response","290","2.0.0","272582","p4t2a7cphcu","smaller","kangaroo","To see how object recognition interferes with our ability to detect the size of an object on the screen. ","No","<p>Correct!</p>","null","","","","","","",""
"","null","html-keyboard-response","291","2.0.0","273584","p4t2a7cphcu","smaller","kangaroo","To see how object recognition interferes with our ability to detect the size of an object on the screen. ","No","<div style=""font-size:60px;"">+</div>","null","","","","","","",""
"","493","image-keyboard-response","292","2.0.0","274079","p4t2a7cphcu","smaller","kangaroo","To see how object recognition interferes with our ability to detect the size of an object on the screen. ","No","stimuli/23-Inongruent.jpg","z","","","","","left","z","true"
"","null","html-keyboard-response","293","2.0.0","274981","p4t2a7cphcu","smaller","kangaroo","To see how object recognition interferes with our ability to detect the size of an object on the screen. ","No","<p>Correct!</p>","null","","","","","","",""
"","null","html-keyboard-response","294","2.0.0","275983","p4t2a7cphcu","smaller","kangaroo","To see how object recognition interferes with our ability to detect the size of an object on the screen. ","No","<div style=""font-size:60px;"">+</div>","null","","","","","","",""
"","619","image-keyboard-response","295","2.0.0","276605","p4t2a7cphcu","smaller","kangaroo","To see how object recognition interferes with our ability to detect the size of an object on the screen. ","No","stimuli/18-Congruent.jpg","m","","","","","right","m","true"
"","null","html-keyboard-response","296","2.0.0","277507","p4t2a7cphcu","smaller","kangaroo","To see how object recognition interferes with our ability to detect the size of an object on the screen. ","No","<p>Correct!</p>","null","","","","","","",""
"","null","html-keyboard-response","297","2.0.0","278510","p4t2a7cphcu","smaller","kangaroo","To see how object recognition interferes with our ability to detect the size of an object on the screen. ","No","<div style=""font-size:60px;"">+</div>","null","","","","","","",""
"","616","image-keyboard-response","298","2.0.0","279128","p4t2a7cphcu","smaller","kangaroo","To see how object recognition interferes with our ability to detect the size of an object on the screen. ","No","stimuli/12-Congruent.jpg","m","","","","","right","m","true"
"","null","html-keyboard-response","299","2.0.0","280030","p4t2a7cphcu","smaller","kangaroo","To see how object recognition interferes with our ability to detect the size of an object on the screen. ","No","<p>Correct!</p>","null","","","","","","",""
"","null","html-keyboard-response","300","2.0.0","281032","p4t2a7cphcu","smaller","kangaroo","To see how object recognition interferes with our ability to detect the size of an object on the screen. ","No","<div style=""font-size:60px;"">+</div>","null","","","","","","",""
"","1062","image-keyboard-response","301","2.0.0","282096","p4t2a7cphcu","smaller","kangaroo","To see how object recognition interferes with our ability to detect the size of an object on the screen. ","No","stimuli/29-Congruent.jpg","m","","","","","right","m","true"
"","null","html-keyboard-response","302","2.0.0","282998","p4t2a7cphcu","smaller","kangaroo","To see how object recognition interferes with our ability to detect the size of an object on the screen. ","No","<p>Correct!</p>","null","","","","","","",""
"","null","html-keyboard-response","303","2.0.0","284002","p4t2a7cphcu","smaller","kangaroo","To see how object recognition interferes with our ability to detect the size of an object on the screen. ","No","<div style=""font-size:60px;"">+</div>","null","","","","","","",""
"","684","image-keyboard-response","304","2.0.0","284687","p4t2a7cphcu","smaller","kangaroo","To see how object recognition interferes with our ability to detect the size of an object on the screen. ","No","stimuli/25-Congruent.jpg","m","","","","","right","m","true"
"","null","html-keyboard-response","305","2.0.0","285590","p4t2a7cphcu","smaller","kangaroo","To see how object recognition interferes with our ability to detect the size of an object on the screen. ","No","<p>Correct!</p>","null","","","","","","",""
"","null","html-keyboard-response","306","2.0.0","286593","p4t2a7cphcu","smaller","kangaroo","To see how object recognition interferes with our ability to detect the size of an object on the screen. ","No","<div style=""font-size:60px;"">+</div>","null","","","","","","",""
"","588","image-keyboard-response","307","2.0.0","287183","p4t2a7cphcu","smaller","kangaroo","To see how object recognition interferes with our ability to detect the size of an object on the screen. ","No","stimuli/3-Inongruent.jpg","z","","","","","left","z","true"
"","null","html-keyboard-response","308","2.0.0","288086","p4t2a7cphcu","smaller","kangaroo","To see how object recognition interferes with our ability to detect the size of an object on the screen. ","No","<p>Correct!</p>","null","","","","","","",""
"","null","html-keyboard-response","309","2.0.0","289089","p4t2a7cphcu","smaller","kangaroo","To see how object recognition interferes with our ability to detect the size of an object on the screen. ","No","<div style=""font-size:60px;"">+</div>","null","","","","","","",""
"","2027","image-keyboard-response","310","2.0.0","291118","p4t2a7cphcu","smaller","kangaroo","To see how object recognition interferes with our ability to detect the size of an object on the screen. ","No","stimuli/36-Congruent.jpg","m","","","","","right","m","true"
"","null","html-keyboard-response","311","2.0.0","292020","p4t2a7cphcu","smaller","kangaroo","To see how object recognition interferes with our ability to detect the size of an object on the screen. ","No","<p>Correct!</p>","null","","","","","","",""
"","null","html-keyboard-response","312","2.0.0","293022","p4t2a7cphcu","smaller","kangaroo","To see how object recognition interferes with our ability to detect the size of an object on the screen. ","No","<div style=""font-size:60px;"">+</div>","null","","","","","","",""
"","1024","image-keyboard-response","313","2.0.0","294048","p4t2a7cphcu","smaller","kangaroo","To see how object recognition interferes with our ability to detect the size of an object on the screen. ","No","stimuli/9-Inongruent.jpg","z","","","","","left","z","true"
"","null","html-keyboard-response","314","2.0.0","294951","p4t2a7cphcu","smaller","kangaroo","To see how object recognition interferes with our ability to detect the size of an object on the screen. ","No","<p>Correct!</p>","null","","","","","","",""
"","null","html-keyboard-response","315","2.0.0","295953","p4t2a7cphcu","smaller","kangaroo","To see how object recognition interferes with our ability to detect the size of an object on the screen. ","No","<div style=""font-size:60px;"">+</div>","null","","","","","","",""
"","1505","image-keyboard-response","316","2.0.0","297461","p4t2a7cphcu","smaller","kangaroo","To see how object recognition interferes with our ability to detect the size of an object on the screen. ","No","stimuli/9-Congruent.jpg","m","","","","","right","m","true"
"","null","html-keyboard-response","317","2.0.0","298363","p4t2a7cphcu","smaller","kangaroo","To see how object recognition interferes with our ability to detect the size of an object on the screen. ","No","<p>Correct!</p>","null","","","","","","",""
"","null","html-keyboard-response","318","2.0.0","299366","p4t2a7cphcu","smaller","kangaroo","To see how object recognition interferes with our ability to detect the size of an object on the screen. ","No","<div style=""font-size:60px;"">+</div>","null","","","","","","",""
"","906","image-keyboard-response","319","2.0.0","300274","p4t2a7cphcu","smaller","kangaroo","To see how object recognition interferes with our ability to detect the size of an object on the screen. ","No","stimuli/5-Congruent.jpg","m","","","","","right","m","true"
"","null","html-keyboard-response","320","2.0.0","301177","p4t2a7cphcu","smaller","kangaroo","To see how object recognition interferes with our ability to detect the size of an object on the screen. ","No","<p>Correct!</p>","null","","","","","","",""
"","null","html-keyboard-response","321","2.0.0","302179","p4t2a7cphcu","smaller","kangaroo","To see how object recognition interferes with our ability to detect the size of an object on the screen. ","No","<div style=""font-size:60px;"">+</div>","null","","","","","","",""
"","512","image-keyboard-response","322","2.0.0","302693","p4t2a7cphcu","smaller","kangaroo","To see how object recognition interferes with our ability to detect the size of an object on the screen. ","No","stimuli/7-Inongruent.jpg","z","","","","","left","z","true"
"","null","html-keyboard-response","323","2.0.0","303595","p4t2a7cphcu","smaller","kangaroo","To see how object recognition interferes with our ability to detect the size of an object on the screen. ","No","<p>Correct!</p>","null","","","","","","",""
"","null","html-keyboard-response","324","2.0.0","304598","p4t2a7cphcu","smaller","kangaroo","To see how object recognition interferes with our ability to detect the size of an object on the screen. ","No","<div style=""font-size:60px;"">+</div>","null","","","","","","",""
"","1034","image-keyboard-response","325","2.0.0","305634","p4t2a7cphcu","smaller","kangaroo","To see how object recognition interferes with our ability to detect the size of an object on the screen. ","No","stimuli/7-Congruent.jpg","z","","","","","right","m","false"
"","null","html-keyboard-response","326","2.0.0","310637","p4t2a7cphcu","smaller","kangaroo","To see how object recognition interferes with our ability to detect the size of an object on the screen. ","No","<p>Incorrect.</p><p>Remember to select the <b>smaller</b> image.</p><p>Continuing in 5 seconds...</p>","null","","","","","","",""
"","null","html-keyboard-response","327","2.0.0","311640","p4t2a7cphcu","smaller","kangaroo","To see how object recognition interferes with our ability to detect the size of an object on the screen. ","No","<div style=""font-size:60px;"">+</div>","null","","","","","","",""
"","1506","image-keyboard-response","328","2.0.0","313148","p4t2a7cphcu","smaller","kangaroo","To see how object recognition interferes with our ability to detect the size of an object on the screen. ","No","stimuli/36-Congruent.jpg","m","","","","","right","m","true"
"","null","html-keyboard-response","329","2.0.0","314050","p4t2a7cphcu","smaller","kangaroo","To see how object recognition interferes with our ability to detect the size of an object on the screen. ","No","<p>Correct!</p>","null","","","","","","",""
"","null","html-keyboard-response","330","2.0.0","315053","p4t2a7cphcu","smaller","kangaroo","To see how object recognition interferes with our ability to detect the size of an object on the screen. ","No","<div style=""font-size:60px;"">+</div>","null","","","","","","",""
"","707","image-keyboard-response","331","2.0.0","315762","p4t2a7cphcu","smaller","kangaroo","To see how object recognition interferes with our ability to detect the size of an object on the screen. ","No","stimuli/33-Inongruent.jpg","z","","","","","left","z","true"
"","null","html-keyboard-response","332","2.0.0","316664","p4t2a7cphcu","smaller","kangaroo","To see how object recognition interferes with our ability to detect the size of an object on the screen. ","No","<p>Correct!</p>","null","","","","","","",""
"","null","html-keyboard-response","333","2.0.0","317667","p4t2a7cphcu","smaller","kangaroo","To see how object recognition interferes with our ability to detect the size of an object on the screen. ","No","<div style=""font-size:60px;"">+</div>","null","","","","","","",""
"","1750","image-keyboard-response","334","2.0.0","319418","p4t2a7cphcu","smaller","kangaroo","To see how object recognition interferes with our ability to detect the size of an object on the screen. ","No","stimuli/12-Congruent.jpg","m","","","","","right","m","true"
"","null","html-keyboard-response","335","2.0.0","320321","p4t2a7cphcu","smaller","kangaroo","To see how object recognition interferes with our ability to detect the size of an object on the screen. ","No","<p>Correct!</p>","null","","","","","","",""
"","null","html-keyboard-response","336","2.0.0","321322","p4t2a7cphcu","smaller","kangaroo","To see how object recognition interferes with our ability to detect the size of an object on the screen. ","No","<div style=""font-size:60px;"">+</div>","null","","","","","","",""
"","974","image-keyboard-response","337","2.0.0","322297","p4t2a7cphcu","smaller","kangaroo","To see how object recognition interferes with our ability to detect the size of an object on the screen. ","No","stimuli/3-Congruent.jpg","m","","","","","right","m","true"
"","null","html-keyboard-response","338","2.0.0","323199","p4t2a7cphcu","smaller","kangaroo","To see how object recognition interferes with our ability to detect the size of an object on the screen. ","No","<p>Correct!</p>","null","","","","","","",""
"","null","html-keyboard-response","339","2.0.0","324202","p4t2a7cphcu","smaller","kangaroo","To see how object recognition interferes with our ability to detect the size of an object on the screen. ","No","<div style=""font-size:60px;"">+</div>","null","","","","","","",""
"","511","image-keyboard-response","340","2.0.0","324715","p4t2a7cphcu","smaller","kangaroo","To see how object recognition interferes with our ability to detect the size of an object on the screen. ","No","stimuli/27-Congruent.jpg","m","","","","","right","m","true"
"","null","html-keyboard-response","341","2.0.0","325617","p4t2a7cphcu","smaller","kangaroo","To see how object recognition interferes with our ability to detect the size of an object on the screen. ","No","<p>Correct!</p>","null","","","","","","",""
"","null","html-keyboard-response","342","2.0.0","326624","p4t2a7cphcu","smaller","kangaroo","To see how object recognition interferes with our ability to detect the size of an object on the screen. ","No","<div style=""font-size:60px;"">+</div>","null","","","","","","",""
"","516","image-keyboard-response","343","2.0.0","327142","p4t2a7cphcu","smaller","kangaroo","To see how object recognition interferes with our ability to detect the size of an object on the screen. ","No","stimuli/31-Inongruent.jpg","z","","","","","left","z","true"
"","null","html-keyboard-response","344","2.0.0","328044","p4t2a7cphcu","smaller","kangaroo","To see how object recognition interferes with our ability to detect the size of an object on the screen. ","No","<p>Correct!</p>","null","","","","","","",""
"","null","html-keyboard-response","345","2.0.0","329047","p4t2a7cphcu","smaller","kangaroo","To see how object recognition interferes with our ability to detect the size of an object on the screen. ","No","<div style=""font-size:60px;"">+</div>","null","","","","","","",""
"","633","image-keyboard-response","346","2.0.0","329682","p4t2a7cphcu","smaller","kangaroo","To see how object recognition interferes with our ability to detect the size of an object on the screen. ","No","stimuli/12-Inongruent.jpg","z","","","","","left","z","true"
"","null","html-keyboard-response","347","2.0.0","330585","p4t2a7cphcu","smaller","kangaroo","To see how object recognition interferes with our ability to detect the size of an object on the screen. ","No","<p>Correct!</p>","null","","","","","","",""
"","null","html-keyboard-response","348","2.0.0","331587","p4t2a7cphcu","smaller","kangaroo","To see how object recognition interferes with our ability to detect the size of an object on the screen. ","No","<div style=""font-size:60px;"">+</div>","null","","","","","","",""
"","469","image-keyboard-response","349","2.0.0","332059","p4t2a7cphcu","smaller","kangaroo","To see how object recognition interferes with our ability to detect the size of an object on the screen. ","No","stimuli/1-Inongruent.jpg","z","","","","","left","z","true"
"","null","html-keyboard-response","350","2.0.0","332961","p4t2a7cphcu","smaller","kangaroo","To see how object recognition interferes with our ability to detect the size of an object on the screen. ","No","<p>Correct!</p>","null","","","","","","",""
"","null","html-keyboard-response","351","2.0.0","333964","p4t2a7cphcu","smaller","kangaroo","To see how object recognition interferes with our ability to detect the size of an object on the screen. ","No","<div style=""font-size:60px;"">+</div>","null","","","","","","",""
"","448","image-keyboard-response","352","2.0.0","334414","p4t2a7cphcu","smaller","kangaroo","To see how object recognition interferes with our ability to detect the size of an object on the screen. ","No","stimuli/18-Inongruent.jpg","z","","","","","left","z","true"
"","null","html-keyboard-response","353","2.0.0","335316","p4t2a7cphcu","smaller","kangaroo","To see how object recognition interferes with our ability to detect the size of an object on the screen. ","No","<p>Correct!</p>","null","","","","","","",""
"","null","html-keyboard-response","354","2.0.0","336318","p4t2a7cphcu","smaller","kangaroo","To see how object recognition interferes with our ability to detect the size of an object on the screen. ","No","<div style=""font-size:60px;"">+</div>","null","","","","","","",""
"","620","image-keyboard-response","355","2.0.0","336940","p4t2a7cphcu","smaller","kangaroo","To see how object recognition interferes with our ability to detect the size of an object on the screen. ","No","stimuli/26-Congruent.jpg","m","","","","","right","m","true"
"","null","html-keyboard-response","356","2.0.0","337843","p4t2a7cphcu","smaller","kangaroo","To see how object recognition interferes with our ability to detect the size of an object on the screen. ","No","<p>Correct!</p>","null","","","","","","",""
"","null","html-keyboard-response","357","2.0.0","338846","p4t2a7cphcu","smaller","kangaroo","To see how object recognition interferes with our ability to detect the size of an object on the screen. ","No","<div style=""font-size:60px;"">+</div>","null","","","","","","",""
"","396","image-keyboard-response","358","2.0.0","339244","p4t2a7cphcu","smaller","kangaroo","To see how object recognition interferes with our ability to detect the size of an object on the screen. ","No","stimuli/16-Inongruent.jpg","z","","","","","left","z","true"
"","null","html-keyboard-response","359","2.0.0","340146","p4t2a7cphcu","smaller","kangaroo","To see how object recognition interferes with our ability to detect the size of an object on the screen. ","No","<p>Correct!</p>","null","","","","","","",""
"","null","html-keyboard-response","360","2.0.0","341148","p4t2a7cphcu","smaller","kangaroo","To see how object recognition interferes with our ability to detect the size of an object on the screen. ","No","<div style=""font-size:60px;"">+</div>","null","","","","","","",""
"","578","image-keyboard-response","361","2.0.0","341728","p4t2a7cphcu","smaller","kangaroo","To see how object recognition interferes with our ability to detect the size of an object on the screen. ","No","stimuli/8-Congruent.jpg","m","","","","","right","m","true"
"","null","html-keyboard-response","362","2.0.0","342631","p4t2a7cphcu","smaller","kangaroo","To see how object recognition interferes with our ability to detect the size of an object on the screen. ","No","<p>Correct!</p>","null","","","","","","",""
"","null","html-keyboard-response","363","2.0.0","343634","p4t2a7cphcu","smaller","kangaroo","To see how object recognition interferes with our ability to detect the size of an object on the screen. ","No","<div style=""font-size:60px;"">+</div>","null","","","","","","",""
"","569","image-keyboard-response","364","2.0.0","344205","p4t2a7cphcu","smaller","kangaroo","To see how object recognition interferes with our ability to detect the size of an object on the screen. ","No","stimuli/6-Congruent.jpg","z","","","","","right","m","false"
"","null","html-keyboard-response","365","2.0.0","349208","p4t2a7cphcu","smaller","kangaroo","To see how object recognition interferes with our ability to detect the size of an object on the screen. ","No","<p>Incorrect.</p><p>Remember to select the <b>smaller</b> image.</p><p>Continuing in 5 seconds...</p>","null","","","","","","",""
"","null","html-keyboard-response","366","2.0.0","350210","p4t2a7cphcu","smaller","kangaroo","To see how object recognition interferes with our ability to detect the size of an object on the screen. ","No","<div style=""font-size:60px;"">+</div>","null","","","","","","",""
"","485","image-keyboard-response","367","2.0.0","350697","p4t2a7cphcu","smaller","kangaroo","To see how object recognition interferes with our ability to detect the size of an object on the screen. ","No","stimuli/2-Congruent.jpg","m","","","","","right","m","true"
"","null","html-keyboard-response","368","2.0.0","351599","p4t2a7cphcu","smaller","kangaroo","To see how object recognition interferes with our ability to detect the size of an object on the screen. ","No","<p>Correct!</p>","null","","","","","","",""
"","null","html-keyboard-response","369","2.0.0","352602","p4t2a7cphcu","smaller","kangaroo","To see how object recognition interferes with our ability to detect the size of an object on the screen. ","No","<div style=""font-size:60px;"">+</div>","null","","","","","","",""
"","696","image-keyboard-response","370","2.0.0","353300","p4t2a7cphcu","smaller","kangaroo","To see how object recognition interferes with our ability to detect the size of an object on the screen. ","No","stimuli/13-Inongruent.jpg","z","","","","","left","z","true"
"","null","html-keyboard-response","371","2.0.0","354203","p4t2a7cphcu","smaller","kangaroo","To see how object recognition interferes with our ability to detect the size of an object on the screen. ","No","<p>Correct!</p>","null","","","","","","",""
"","null","html-keyboard-response","372","2.0.0","355206","p4t2a7cphcu","smaller","kangaroo","To see how object recognition interferes with our ability to detect the size of an object on the screen. ","No","<div style=""font-size:60px;"">+</div>","null","","","","","","",""
