"success","rt","trial_type","trial_index","plugin_version","time_elapsed","random_id","condition","participant","participant_thoughts","participant_difficulties","stimulus","response","timeout","failed_images","failed_audio","failed_video","correct_response","correct_response_key","correct"
"true","3463","fullscreen","0","null","4467","p6k37xnjjoz","smaller","panda","Something to do with visual perception","no","","","","","","","","",""
"","8702","html-keyboard-response","1","2.0.0","13171","p6k37xnjjoz","smaller","panda","Something to do with visual perception","no","Welcome to the Size Stroop experiment. Press any key to begin.","Enter","","","","","","",""
"","null","html-keyboard-response","2","2.0.0","14175","p6k37xnjjoz","smaller","panda","Something to do with visual perception","no","This trial will be in fullscreen mode.","null","","","","","","",""
"","3149","survey-text","3","2.0.0","17350","p6k37xnjjoz","smaller","panda","Something to do with visual perception","no","","{""participant_id"":""panda""}","","","","","","",""
"","14599","html-keyboard-response","4","2.0.0","31950","p6k37xnjjoz","smaller","panda","Something to do with visual perception","no","<p>In this experiment, two images will appear on the screen. Identify the <strong>smaller</strong> image.</p>
              <p>If the image on the left is smaller, press ""z"". If the image on the right is smaller, press ""m"".</p>
              <p>Press any key to begin.</p>","Enter","","","","","","",""
"true","","preload","5","2.0.0","33398","p6k37xnjjoz","smaller","panda","Something to do with visual perception","no","","","false","[]","[]","[]","","",""
"","null","html-keyboard-response","6","2.0.0","34401","p6k37xnjjoz","smaller","panda","Something to do with visual perception","no","<div style=""font-size:60px;"">+</div>","null","","","","","","",""
"","1332","image-keyboard-response","7","2.0.0","35743","p6k37xnjjoz","smaller","panda","Something to do with visual perception","no","stimuli/4-Congruent.jpg","z","","","","","right","m","false"
"","null","html-keyboard-response","8","2.0.0","40747","p6k37xnjjoz","smaller","panda","Something to do with visual perception","no","<p>Incorrect.</p><p>Remember to select the <b>smaller</b> image.</p><p>Continuing in 5 seconds...</p>","null","","","","","","",""
"","null","html-keyboard-response","9","2.0.0","41751","p6k37xnjjoz","smaller","panda","Something to do with visual perception","no","<div style=""font-size:60px;"">+</div>","null","","","","","","",""
"","1126","image-keyboard-response","10","2.0.0","42886","p6k37xnjjoz","smaller","panda","Something to do with visual perception","no","stimuli/12-Congruent.jpg","m","","","","","right","m","true"
"","null","html-keyboard-response","11","2.0.0","43789","p6k37xnjjoz","smaller","panda","Something to do with visual perception","no","<p>Correct!</p>","null","","","","","","",""
"","null","html-keyboard-response","12","2.0.0","44793","p6k37xnjjoz","smaller","panda","Something to do with visual perception","no","<div style=""font-size:60px;"">+</div>","null","","","","","","",""
"","1582","image-keyboard-response","13","2.0.0","46385","p6k37xnjjoz","smaller","panda","Something to do with visual perception","no","stimuli/33-Inongruent.jpg","z","","","","","left","z","true"
"","null","html-keyboard-response","14","2.0.0","47289","p6k37xnjjoz","smaller","panda","Something to do with visual perception","no","<p>Correct!</p>","null","","","","","","",""
"","null","html-keyboard-response","15","2.0.0","48293","p6k37xnjjoz","smaller","panda","Something to do with visual perception","no","<div style=""font-size:60px;"">+</div>","null","","","","","","",""
"","703","image-keyboard-response","16","2.0.0","49004","p6k37xnjjoz","smaller","panda","Something to do with visual perception","no","stimuli/21-Congruent.jpg","m","","","","","right","m","true"
"","null","html-keyboard-response","17","2.0.0","49907","p6k37xnjjoz","smaller","panda","Something to do with visual perception","no","<p>Correct!</p>","null","","","","","","",""
"","null","html-keyboard-response","18","2.0.0","50911","p6k37xnjjoz","smaller","panda","Something to do with visual perception","no","<div style=""font-size:60px;"">+</div>","null","","","","","","",""
"","712","image-keyboard-response","19","2.0.0","51632","p6k37xnjjoz","smaller","panda","Something to do with visual perception","no","stimuli/26-Inongruent.jpg","z","","","","","left","z","true"
"","null","html-keyboard-response","20","2.0.0","52536","p6k37xnjjoz","smaller","panda","Something to do with visual perception","no","<p>Correct!</p>","null","","","","","","",""
"","null","html-keyboard-response","21","2.0.0","53540","p6k37xnjjoz","smaller","panda","Something to do with visual perception","no","<div style=""font-size:60px;"">+</div>","null","","","","","","",""
"","866","image-keyboard-response","22","2.0.0","54415","p6k37xnjjoz","smaller","panda","Something to do with visual perception","no","stimuli/26-Congruent.jpg","m","","","","","right","m","true"
"","null","html-keyboard-response","23","2.0.0","55318","p6k37xnjjoz","smaller","panda","Something to do with visual perception","no","<p>Correct!</p>","null","","","","","","",""
"","null","html-keyboard-response","24","2.0.0","56321","p6k37xnjjoz","smaller","panda","Something to do with visual perception","no","<div style=""font-size:60px;"">+</div>","null","","","","","","",""
"","489","image-keyboard-response","25","2.0.0","56820","p6k37xnjjoz","smaller","panda","Something to do with visual perception","no","stimuli/6-Inongruent.jpg","z","","","","","left","z","true"
"","null","html-keyboard-response","26","2.0.0","57722","p6k37xnjjoz","smaller","panda","Something to do with visual perception","no","<p>Correct!</p>","null","","","","","","",""
"","null","html-keyboard-response","27","2.0.0","58726","p6k37xnjjoz","smaller","panda","Something to do with visual perception","no","<div style=""font-size:60px;"">+</div>","null","","","","","","",""
"","520","image-keyboard-response","28","2.0.0","59255","p6k37xnjjoz","smaller","panda","Something to do with visual perception","no","stimuli/12-Inongruent.jpg","m","","","","","left","z","false"
"","149","html-keyboard-response","29","2.0.0","59406","p6k37xnjjoz","smaller","panda","Something to do with visual perception","no","<p>Incorrect.</p><p>Remember to select the <b>smaller</b> image.</p><p>Continuing in 5 seconds...</p>","m","","","","","","",""
"","null","html-keyboard-response","30","2.0.0","60410","p6k37xnjjoz","smaller","panda","Something to do with visual perception","no","<div style=""font-size:60px;"">+</div>","null","","","","","","",""
"","926","image-keyboard-response","31","2.0.0","61345","p6k37xnjjoz","smaller","panda","Something to do with visual perception","no","stimuli/19-Inongruent.jpg","z","","","","","left","z","true"
"","null","html-keyboard-response","32","2.0.0","62248","p6k37xnjjoz","smaller","panda","Something to do with visual perception","no","<p>Correct!</p>","null","","","","","","",""
"","null","html-keyboard-response","33","2.0.0","63251","p6k37xnjjoz","smaller","panda","Something to do with visual perception","no","<div style=""font-size:60px;"">+</div>","null","","","","","","",""
"","584","image-keyboard-response","34","2.0.0","63842","p6k37xnjjoz","smaller","panda","Something to do with visual perception","no","stimuli/4-Inongruent.jpg","z","","","","","left","z","true"
"","null","html-keyboard-response","35","2.0.0","64745","p6k37xnjjoz","smaller","panda","Something to do with visual perception","no","<p>Correct!</p>","null","","","","","","",""
"","null","html-keyboard-response","36","2.0.0","65749","p6k37xnjjoz","smaller","panda","Something to do with visual perception","no","<div style=""font-size:60px;"">+</div>","null","","","","","","",""
"","589","image-keyboard-response","37","2.0.0","66347","p6k37xnjjoz","smaller","panda","Something to do with visual perception","no","stimuli/23-Congruent.jpg","m","","","","","right","m","true"
"","null","html-keyboard-response","38","2.0.0","67250","p6k37xnjjoz","smaller","panda","Something to do with visual perception","no","<p>Correct!</p>","null","","","","","","",""
"","null","html-keyboard-response","39","2.0.0","68253","p6k37xnjjoz","smaller","panda","Something to do with visual perception","no","<div style=""font-size:60px;"">+</div>","null","","","","","","",""
"","939","image-keyboard-response","40","2.0.0","69200","p6k37xnjjoz","smaller","panda","Something to do with visual perception","no","stimuli/10-Inongruent.jpg","z","","","","","left","z","true"
"","null","html-keyboard-response","41","2.0.0","70102","p6k37xnjjoz","smaller","panda","Something to do with visual perception","no","<p>Correct!</p>","null","","","","","","",""
"","null","html-keyboard-response","42","2.0.0","71105","p6k37xnjjoz","smaller","panda","Something to do with visual perception","no","<div style=""font-size:60px;"">+</div>","null","","","","","","",""
"","558","image-keyboard-response","43","2.0.0","71673","p6k37xnjjoz","smaller","panda","Something to do with visual perception","no","stimuli/32-Congruent.jpg","m","","","","","right","m","true"
"","null","html-keyboard-response","44","2.0.0","72576","p6k37xnjjoz","smaller","panda","Something to do with visual perception","no","<p>Correct!</p>","null","","","","","","",""
"","null","html-keyboard-response","45","2.0.0","73581","p6k37xnjjoz","smaller","panda","Something to do with visual perception","no","<div style=""font-size:60px;"">+</div>","null","","","","","","",""
"","525","image-keyboard-response","46","2.0.0","74108","p6k37xnjjoz","smaller","panda","Something to do with visual perception","no","stimuli/26-Inongruent.jpg","z","","","","","left","z","true"
"","null","html-keyboard-response","47","2.0.0","75010","p6k37xnjjoz","smaller","panda","Something to do with visual perception","no","<p>Correct!</p>","null","","","","","","",""
"","null","html-keyboard-response","48","2.0.0","76014","p6k37xnjjoz","smaller","panda","Something to do with visual perception","no","<div style=""font-size:60px;"">+</div>","null","","","","","","",""
"","590","image-keyboard-response","49","2.0.0","76613","p6k37xnjjoz","smaller","panda","Something to do with visual perception","no","stimuli/24-Congruent.jpg","m","","","","","right","m","true"
"","null","html-keyboard-response","50","2.0.0","77516","p6k37xnjjoz","smaller","panda","Something to do with visual perception","no","<p>Correct!</p>","null","","","","","","",""
"","null","html-keyboard-response","51","2.0.0","78520","p6k37xnjjoz","smaller","panda","Something to do with visual perception","no","<div style=""font-size:60px;"">+</div>","null","","","","","","",""
"","537","image-keyboard-response","52","2.0.0","79065","p6k37xnjjoz","smaller","panda","Something to do with visual perception","no","stimuli/36-Inongruent.jpg","z","","","","","left","z","true"
"","null","html-keyboard-response","53","2.0.0","79968","p6k37xnjjoz","smaller","panda","Something to do with visual perception","no","<p>Correct!</p>","null","","","","","","",""
"","null","html-keyboard-response","54","2.0.0","80971","p6k37xnjjoz","smaller","panda","Something to do with visual perception","no","<div style=""font-size:60px;"">+</div>","null","","","","","","",""
"","686","image-keyboard-response","55","2.0.0","81666","p6k37xnjjoz","smaller","panda","Something to do with visual perception","no","stimuli/36-Congruent.jpg","m","","","","","right","m","true"
"","null","html-keyboard-response","56","2.0.0","82569","p6k37xnjjoz","smaller","panda","Something to do with visual perception","no","<p>Correct!</p>","null","","","","","","",""
"","null","html-keyboard-response","57","2.0.0","83572","p6k37xnjjoz","smaller","panda","Something to do with visual perception","no","<div style=""font-size:60px;"">+</div>","null","","","","","","",""
"","564","image-keyboard-response","58","2.0.0","84146","p6k37xnjjoz","smaller","panda","Something to do with visual perception","no","stimuli/22-Congruent.jpg","m","","","","","right","m","true"
"","null","html-keyboard-response","59","2.0.0","85049","p6k37xnjjoz","smaller","panda","Something to do with visual perception","no","<p>Correct!</p>","null","","","","","","",""
"","null","html-keyboard-response","60","2.0.0","86052","p6k37xnjjoz","smaller","panda","Something to do with visual perception","no","<div style=""font-size:60px;"">+</div>","null","","","","","","",""
"","945","image-keyboard-response","61","2.0.0","87006","p6k37xnjjoz","smaller","panda","Something to do with visual perception","no","stimuli/8-Congruent.jpg","m","","","","","right","m","true"
"","null","html-keyboard-response","62","2.0.0","87909","p6k37xnjjoz","smaller","panda","Something to do with visual perception","no","<p>Correct!</p>","null","","","","","","",""
"","null","html-keyboard-response","63","2.0.0","88913","p6k37xnjjoz","smaller","panda","Something to do with visual perception","no","<div style=""font-size:60px;"">+</div>","null","","","","","","",""
"","2206","image-keyboard-response","64","2.0.0","91128","p6k37xnjjoz","smaller","panda","Something to do with visual perception","no","stimuli/29-Inongruent.jpg","z","","","","","left","z","true"
"","null","html-keyboard-response","65","2.0.0","92030","p6k37xnjjoz","smaller","panda","Something to do with visual perception","no","<p>Correct!</p>","null","","","","","","",""
"","null","html-keyboard-response","66","2.0.0","93032","p6k37xnjjoz","smaller","panda","Something to do with visual perception","no","<div style=""font-size:60px;"">+</div>","null","","","","","","",""
"","854","image-keyboard-response","67","2.0.0","93893","p6k37xnjjoz","smaller","panda","Something to do with visual perception","no","stimuli/17-Congruent.jpg","m","","","","","right","m","true"
"","null","html-keyboard-response","68","2.0.0","94795","p6k37xnjjoz","smaller","panda","Something to do with visual perception","no","<p>Correct!</p>","null","","","","","","",""
"","null","html-keyboard-response","69","2.0.0","95799","p6k37xnjjoz","smaller","panda","Something to do with visual perception","no","<div style=""font-size:60px;"">+</div>","null","","","","","","",""
"","1186","image-keyboard-response","70","2.0.0","96994","p6k37xnjjoz","smaller","panda","Something to do with visual perception","no","stimuli/11-Inongruent.jpg","z","","","","","left","z","true"
"","null","html-keyboard-response","71","2.0.0","97899","p6k37xnjjoz","smaller","panda","Something to do with visual perception","no","<p>Correct!</p>","null","","","","","","",""
"","null","html-keyboard-response","72","2.0.0","98904","p6k37xnjjoz","smaller","panda","Something to do with visual perception","no","<div style=""font-size:60px;"">+</div>","null","","","","","","",""
"","979","image-keyboard-response","73","2.0.0","99894","p6k37xnjjoz","smaller","panda","Something to do with visual perception","no","stimuli/18-Inongruent.jpg","z","","","","","left","z","true"
"","null","html-keyboard-response","74","2.0.0","100798","p6k37xnjjoz","smaller","panda","Something to do with visual perception","no","<p>Correct!</p>","null","","","","","","",""
"","null","html-keyboard-response","75","2.0.0","101804","p6k37xnjjoz","smaller","panda","Something to do with visual perception","no","<div style=""font-size:60px;"">+</div>","null","","","","","","",""
"","1585","image-keyboard-response","76","2.0.0","103402","p6k37xnjjoz","smaller","panda","Something to do with visual perception","no","stimuli/22-Congruent.jpg","m","","","","","right","m","true"
"","null","html-keyboard-response","77","2.0.0","104307","p6k37xnjjoz","smaller","panda","Something to do with visual perception","no","<p>Correct!</p>","null","","","","","","",""
"","null","html-keyboard-response","78","2.0.0","105312","p6k37xnjjoz","smaller","panda","Something to do with visual perception","no","<div style=""font-size:60px;"">+</div>","null","","","","","","",""
"","1006","image-keyboard-response","79","2.0.0","106329","p6k37xnjjoz","smaller","panda","Something to do with visual perception","no","stimuli/28-Inongruent.jpg","z","","","","","left","z","true"
"","null","html-keyboard-response","80","2.0.0","107232","p6k37xnjjoz","smaller","panda","Something to do with visual perception","no","<p>Correct!</p>","null","","","","","","",""
"","null","html-keyboard-response","81","2.0.0","108236","p6k37xnjjoz","smaller","panda","Something to do with visual perception","no","<div style=""font-size:60px;"">+</div>","null","","","","","","",""
"","1367","image-keyboard-response","82","2.0.0","109613","p6k37xnjjoz","smaller","panda","Something to do with visual perception","no","stimuli/11-Congruent.jpg","m","","","","","right","m","true"
"","null","html-keyboard-response","83","2.0.0","110516","p6k37xnjjoz","smaller","panda","Something to do with visual perception","no","<p>Correct!</p>","null","","","","","","",""
"","null","html-keyboard-response","84","2.0.0","111520","p6k37xnjjoz","smaller","panda","Something to do with visual perception","no","<div style=""font-size:60px;"">+</div>","null","","","","","","",""
"","652","image-keyboard-response","85","2.0.0","112182","p6k37xnjjoz","smaller","panda","Something to do with visual perception","no","stimuli/29-Congruent.jpg","m","","","","","right","m","true"
"","null","html-keyboard-response","86","2.0.0","113085","p6k37xnjjoz","smaller","panda","Something to do with visual perception","no","<p>Correct!</p>","null","","","","","","",""
"","null","html-keyboard-response","87","2.0.0","114088","p6k37xnjjoz","smaller","panda","Something to do with visual perception","no","<div style=""font-size:60px;"">+</div>","null","","","","","","",""
"","1065","image-keyboard-response","88","2.0.0","115164","p6k37xnjjoz","smaller","panda","Something to do with visual perception","no","stimuli/32-Inongruent.jpg","z","","","","","left","z","true"
"","null","html-keyboard-response","89","2.0.0","116068","p6k37xnjjoz","smaller","panda","Something to do with visual perception","no","<p>Correct!</p>","null","","","","","","",""
"","null","html-keyboard-response","90","2.0.0","117072","p6k37xnjjoz","smaller","panda","Something to do with visual perception","no","<div style=""font-size:60px;"">+</div>","null","","","","","","",""
"","987","image-keyboard-response","91","2.0.0","118068","p6k37xnjjoz","smaller","panda","Something to do with visual perception","no","stimuli/15-Congruent.jpg","m","","","","","right","m","true"
"","null","html-keyboard-response","92","2.0.0","118971","p6k37xnjjoz","smaller","panda","Something to do with visual perception","no","<p>Correct!</p>","null","","","","","","",""
"","null","html-keyboard-response","93","2.0.0","119974","p6k37xnjjoz","smaller","panda","Something to do with visual perception","no","<div style=""font-size:60px;"">+</div>","null","","","","","","",""
"","851","image-keyboard-response","94","2.0.0","120836","p6k37xnjjoz","smaller","panda","Something to do with visual perception","no","stimuli/24-Inongruent.jpg","z","","","","","left","z","true"
"","null","html-keyboard-response","95","2.0.0","121739","p6k37xnjjoz","smaller","panda","Something to do with visual perception","no","<p>Correct!</p>","null","","","","","","",""
"","null","html-keyboard-response","96","2.0.0","122743","p6k37xnjjoz","smaller","panda","Something to do with visual perception","no","<div style=""font-size:60px;"">+</div>","null","","","","","","",""
"","729","image-keyboard-response","97","2.0.0","123475","p6k37xnjjoz","smaller","panda","Something to do with visual perception","no","stimuli/33-Inongruent.jpg","z","","","","","left","z","true"
"","null","html-keyboard-response","98","2.0.0","124379","p6k37xnjjoz","smaller","panda","Something to do with visual perception","no","<p>Correct!</p>","null","","","","","","",""
"","null","html-keyboard-response","99","2.0.0","125383","p6k37xnjjoz","smaller","panda","Something to do with visual perception","no","<div style=""font-size:60px;"">+</div>","null","","","","","","",""
"","509","image-keyboard-response","100","2.0.0","125900","p6k37xnjjoz","smaller","panda","Something to do with visual perception","no","stimuli/10-Congruent.jpg","m","","","","","right","m","true"
"","null","html-keyboard-response","101","2.0.0","126803","p6k37xnjjoz","smaller","panda","Something to do with visual perception","no","<p>Correct!</p>","null","","","","","","",""
"","null","html-keyboard-response","102","2.0.0","127807","p6k37xnjjoz","smaller","panda","Something to do with visual perception","no","<div style=""font-size:60px;"">+</div>","null","","","","","","",""
"","541","image-keyboard-response","103","2.0.0","128358","p6k37xnjjoz","smaller","panda","Something to do with visual perception","no","stimuli/9-Congruent.jpg","m","","","","","right","m","true"
"","null","html-keyboard-response","104","2.0.0","129262","p6k37xnjjoz","smaller","panda","Something to do with visual perception","no","<p>Correct!</p>","null","","","","","","",""
"","null","html-keyboard-response","105","2.0.0","130268","p6k37xnjjoz","smaller","panda","Something to do with visual perception","no","<div style=""font-size:60px;"">+</div>","null","","","","","","",""
"","521","image-keyboard-response","106","2.0.0","130799","p6k37xnjjoz","smaller","panda","Something to do with visual perception","no","stimuli/27-Congruent.jpg","m","","","","","right","m","true"
"","null","html-keyboard-response","107","2.0.0","131703","p6k37xnjjoz","smaller","panda","Something to do with visual perception","no","<p>Correct!</p>","null","","","","","","",""
"","null","html-keyboard-response","108","2.0.0","132706","p6k37xnjjoz","smaller","panda","Something to do with visual perception","no","<div style=""font-size:60px;"">+</div>","null","","","","","","",""
"","541","image-keyboard-response","109","2.0.0","133257","p6k37xnjjoz","smaller","panda","Something to do with visual perception","no","stimuli/16-Inongruent.jpg","z","","","","","left","z","true"
"","null","html-keyboard-response","110","2.0.0","134160","p6k37xnjjoz","smaller","panda","Something to do with visual perception","no","<p>Correct!</p>","null","","","","","","",""
"","null","html-keyboard-response","111","2.0.0","135164","p6k37xnjjoz","smaller","panda","Something to do with visual perception","no","<div style=""font-size:60px;"">+</div>","null","","","","","","",""
"","721","image-keyboard-response","112","2.0.0","135894","p6k37xnjjoz","smaller","panda","Something to do with visual perception","no","stimuli/3-Inongruent.jpg","z","","","","","left","z","true"
"","null","html-keyboard-response","113","2.0.0","136797","p6k37xnjjoz","smaller","panda","Something to do with visual perception","no","<p>Correct!</p>","null","","","","","","",""
"","null","html-keyboard-response","114","2.0.0","137800","p6k37xnjjoz","smaller","panda","Something to do with visual perception","no","<div style=""font-size:60px;"">+</div>","null","","","","","","",""
"","597","image-keyboard-response","115","2.0.0","138407","p6k37xnjjoz","smaller","panda","Something to do with visual perception","no","stimuli/20-Congruent.jpg","m","","","","","right","m","true"
"","null","html-keyboard-response","116","2.0.0","139311","p6k37xnjjoz","smaller","panda","Something to do with visual perception","no","<p>Correct!</p>","null","","","","","","",""
"","null","html-keyboard-response","117","2.0.0","140315","p6k37xnjjoz","smaller","panda","Something to do with visual perception","no","<div style=""font-size:60px;"">+</div>","null","","","","","","",""
"","488","image-keyboard-response","118","2.0.0","140806","p6k37xnjjoz","smaller","panda","Something to do with visual perception","no","stimuli/36-Congruent.jpg","m","","","","","right","m","true"
"","null","html-keyboard-response","119","2.0.0","141709","p6k37xnjjoz","smaller","panda","Something to do with visual perception","no","<p>Correct!</p>","null","","","","","","",""
"","null","html-keyboard-response","120","2.0.0","142712","p6k37xnjjoz","smaller","panda","Something to do with visual perception","no","<div style=""font-size:60px;"">+</div>","null","","","","","","",""
"","611","image-keyboard-response","121","2.0.0","143333","p6k37xnjjoz","smaller","panda","Something to do with visual perception","no","stimuli/7-Congruent.jpg","m","","","","","right","m","true"
"","null","html-keyboard-response","122","2.0.0","144236","p6k37xnjjoz","smaller","panda","Something to do with visual perception","no","<p>Correct!</p>","null","","","","","","",""
"","null","html-keyboard-response","123","2.0.0","145239","p6k37xnjjoz","smaller","panda","Something to do with visual perception","no","<div style=""font-size:60px;"">+</div>","null","","","","","","",""
"","814","image-keyboard-response","124","2.0.0","146063","p6k37xnjjoz","smaller","panda","Something to do with visual perception","no","stimuli/18-Congruent.jpg","m","","","","","right","m","true"
"","null","html-keyboard-response","125","2.0.0","146966","p6k37xnjjoz","smaller","panda","Something to do with visual perception","no","<p>Correct!</p>","null","","","","","","",""
"","null","html-keyboard-response","126","2.0.0","147970","p6k37xnjjoz","smaller","panda","Something to do with visual perception","no","<div style=""font-size:60px;"">+</div>","null","","","","","","",""
"","928","image-keyboard-response","127","2.0.0","148906","p6k37xnjjoz","smaller","panda","Something to do with visual perception","no","stimuli/35-Inongruent.jpg","z","","","","","left","z","true"
"","null","html-keyboard-response","128","2.0.0","149809","p6k37xnjjoz","smaller","panda","Something to do with visual perception","no","<p>Correct!</p>","null","","","","","","",""
"","null","html-keyboard-response","129","2.0.0","150812","p6k37xnjjoz","smaller","panda","Something to do with visual perception","no","<div style=""font-size:60px;"">+</div>","null","","","","","","",""
"","1172","image-keyboard-response","130","2.0.0","151996","p6k37xnjjoz","smaller","panda","Something to do with visual perception","no","stimuli/16-Congruent.jpg","m","","","","","right","m","true"
"","null","html-keyboard-response","131","2.0.0","152899","p6k37xnjjoz","smaller","panda","Something to do with visual perception","no","<p>Correct!</p>","null","","","","","","",""
"","null","html-keyboard-response","132","2.0.0","153902","p6k37xnjjoz","smaller","panda","Something to do with visual perception","no","<div style=""font-size:60px;"">+</div>","null","","","","","","",""
"","626","image-keyboard-response","133","2.0.0","154530","p6k37xnjjoz","smaller","panda","Something to do with visual perception","no","stimuli/7-Congruent.jpg","m","","","","","right","m","true"
"","null","html-keyboard-response","134","2.0.0","155433","p6k37xnjjoz","smaller","panda","Something to do with visual perception","no","<p>Correct!</p>","null","","","","","","",""
"","null","html-keyboard-response","135","2.0.0","156436","p6k37xnjjoz","smaller","panda","Something to do with visual perception","no","<div style=""font-size:60px;"">+</div>","null","","","","","","",""
"","1204","image-keyboard-response","136","2.0.0","157650","p6k37xnjjoz","smaller","panda","Something to do with visual perception","no","stimuli/1-Congruent.jpg","m","","","","","right","m","true"
"","null","html-keyboard-response","137","2.0.0","158553","p6k37xnjjoz","smaller","panda","Something to do with visual perception","no","<p>Correct!</p>","null","","","","","","",""
"","null","html-keyboard-response","138","2.0.0","159557","p6k37xnjjoz","smaller","panda","Something to do with visual perception","no","<div style=""font-size:60px;"">+</div>","null","","","","","","",""
"","1352","image-keyboard-response","139","2.0.0","160919","p6k37xnjjoz","smaller","panda","Something to do with visual perception","no","stimuli/31-Congruent.jpg","m","","","","","right","m","true"
"","null","html-keyboard-response","140","2.0.0","161822","p6k37xnjjoz","smaller","panda","Something to do with visual perception","no","<p>Correct!</p>","null","","","","","","",""
"","null","html-keyboard-response","141","2.0.0","162826","p6k37xnjjoz","smaller","panda","Something to do with visual perception","no","<div style=""font-size:60px;"">+</div>","null","","","","","","",""
"","872","image-keyboard-response","142","2.0.0","163700","p6k37xnjjoz","smaller","panda","Something to do with visual perception","no","stimuli/20-Congruent.jpg","m","","","","","right","m","true"
"","null","html-keyboard-response","143","2.0.0","164603","p6k37xnjjoz","smaller","panda","Something to do with visual perception","no","<p>Correct!</p>","null","","","","","","",""
"","null","html-keyboard-response","144","2.0.0","165606","p6k37xnjjoz","smaller","panda","Something to do with visual perception","no","<div style=""font-size:60px;"">+</div>","null","","","","","","",""
"","1379","image-keyboard-response","145","2.0.0","166994","p6k37xnjjoz","smaller","panda","Something to do with visual perception","no","stimuli/31-Inongruent.jpg","z","","","","","left","z","true"
"","null","html-keyboard-response","146","2.0.0","167896","p6k37xnjjoz","smaller","panda","Something to do with visual perception","no","<p>Correct!</p>","null","","","","","","",""
"","null","html-keyboard-response","147","2.0.0","168900","p6k37xnjjoz","smaller","panda","Something to do with visual perception","no","<div style=""font-size:60px;"">+</div>","null","","","","","","",""
"","1074","image-keyboard-response","148","2.0.0","169983","p6k37xnjjoz","smaller","panda","Something to do with visual perception","no","stimuli/2-Inongruent.jpg","z","","","","","left","z","true"
"","null","html-keyboard-response","149","2.0.0","170886","p6k37xnjjoz","smaller","panda","Something to do with visual perception","no","<p>Correct!</p>","null","","","","","","",""
"","null","html-keyboard-response","150","2.0.0","171890","p6k37xnjjoz","smaller","panda","Something to do with visual perception","no","<div style=""font-size:60px;"">+</div>","null","","","","","","",""
"","876","image-keyboard-response","151","2.0.0","172775","p6k37xnjjoz","smaller","panda","Something to do with visual perception","no","stimuli/21-Inongruent.jpg","z","","","","","left","z","true"
"","null","html-keyboard-response","152","2.0.0","173677","p6k37xnjjoz","smaller","panda","Something to do with visual perception","no","<p>Correct!</p>","null","","","","","","",""
"","null","html-keyboard-response","153","2.0.0","174680","p6k37xnjjoz","smaller","panda","Something to do with visual perception","no","<div style=""font-size:60px;"">+</div>","null","","","","","","",""
"","594","image-keyboard-response","154","2.0.0","175284","p6k37xnjjoz","smaller","panda","Something to do with visual perception","no","stimuli/13-Congruent.jpg","m","","","","","right","m","true"
"","null","html-keyboard-response","155","2.0.0","176187","p6k37xnjjoz","smaller","panda","Something to do with visual perception","no","<p>Correct!</p>","null","","","","","","",""
"","null","html-keyboard-response","156","2.0.0","177190","p6k37xnjjoz","smaller","panda","Something to do with visual perception","no","<div style=""font-size:60px;"">+</div>","null","","","","","","",""
"","462","image-keyboard-response","157","2.0.0","177664","p6k37xnjjoz","smaller","panda","Something to do with visual perception","no","stimuli/14-Inongruent.jpg","z","","","","","left","z","true"
"","null","html-keyboard-response","158","2.0.0","178568","p6k37xnjjoz","smaller","panda","Something to do with visual perception","no","<p>Correct!</p>","null","","","","","","",""
"","null","html-keyboard-response","159","2.0.0","179573","p6k37xnjjoz","smaller","panda","Something to do with visual perception","no","<div style=""font-size:60px;"">+</div>","null","","","","","","",""
"","638","image-keyboard-response","160","2.0.0","180214","p6k37xnjjoz","smaller","panda","Something to do with visual perception","no","stimuli/11-Inongruent.jpg","z","","","","","left","z","true"
"","null","html-keyboard-response","161","2.0.0","181117","p6k37xnjjoz","smaller","panda","Something to do with visual perception","no","<p>Correct!</p>","null","","","","","","",""
"","null","html-keyboard-response","162","2.0.0","182121","p6k37xnjjoz","smaller","panda","Something to do with visual perception","no","<div style=""font-size:60px;"">+</div>","null","","","","","","",""
"","515","image-keyboard-response","163","2.0.0","182642","p6k37xnjjoz","smaller","panda","Something to do with visual perception","no","stimuli/14-Congruent.jpg","m","","","","","right","m","true"
"","null","html-keyboard-response","164","2.0.0","183545","p6k37xnjjoz","smaller","panda","Something to do with visual perception","no","<p>Correct!</p>","null","","","","","","",""
"","null","html-keyboard-response","165","2.0.0","184549","p6k37xnjjoz","smaller","panda","Something to do with visual perception","no","<div style=""font-size:60px;"">+</div>","null","","","","","","",""
"","410","image-keyboard-response","166","2.0.0","184968","p6k37xnjjoz","smaller","panda","Something to do with visual perception","no","stimuli/23-Inongruent.jpg","z","","","","","left","z","true"
"","null","html-keyboard-response","167","2.0.0","185871","p6k37xnjjoz","smaller","panda","Something to do with visual perception","no","<p>Correct!</p>","null","","","","","","",""
"","null","html-keyboard-response","168","2.0.0","186874","p6k37xnjjoz","smaller","panda","Something to do with visual perception","no","<div style=""font-size:60px;"">+</div>","null","","","","","","",""
"","487","image-keyboard-response","169","2.0.0","187364","p6k37xnjjoz","smaller","panda","Something to do with visual perception","no","stimuli/16-Congruent.jpg","m","","","","","right","m","true"
"","null","html-keyboard-response","170","2.0.0","188268","p6k37xnjjoz","smaller","panda","Something to do with visual perception","no","<p>Correct!</p>","null","","","","","","",""
"","null","html-keyboard-response","171","2.0.0","189269","p6k37xnjjoz","smaller","panda","Something to do with visual perception","no","<div style=""font-size:60px;"">+</div>","null","","","","","","",""
"","598","image-keyboard-response","172","2.0.0","189870","p6k37xnjjoz","smaller","panda","Something to do with visual perception","no","stimuli/29-Inongruent.jpg","z","","","","","left","z","true"
"","null","html-keyboard-response","173","2.0.0","190774","p6k37xnjjoz","smaller","panda","Something to do with visual perception","no","<p>Correct!</p>","null","","","","","","",""
"","null","html-keyboard-response","174","2.0.0","191777","p6k37xnjjoz","smaller","panda","Something to do with visual perception","no","<div style=""font-size:60px;"">+</div>","null","","","","","","",""
"","420","image-keyboard-response","175","2.0.0","192201","p6k37xnjjoz","smaller","panda","Something to do with visual perception","no","stimuli/31-Congruent.jpg","m","","","","","right","m","true"
"","null","html-keyboard-response","176","2.0.0","193103","p6k37xnjjoz","smaller","panda","Something to do with visual perception","no","<p>Correct!</p>","null","","","","","","",""
"","null","html-keyboard-response","177","2.0.0","194105","p6k37xnjjoz","smaller","panda","Something to do with visual perception","no","<div style=""font-size:60px;"">+</div>","null","","","","","","",""
"","559","image-keyboard-response","178","2.0.0","194674","p6k37xnjjoz","smaller","panda","Something to do with visual perception","no","stimuli/2-Congruent.jpg","m","","","","","right","m","true"
"","null","html-keyboard-response","179","2.0.0","195577","p6k37xnjjoz","smaller","panda","Something to do with visual perception","no","<p>Correct!</p>","null","","","","","","",""
"","null","html-keyboard-response","180","2.0.0","196581","p6k37xnjjoz","smaller","panda","Something to do with visual perception","no","<div style=""font-size:60px;"">+</div>","null","","","","","","",""
"","675","image-keyboard-response","181","2.0.0","197265","p6k37xnjjoz","smaller","panda","Something to do with visual perception","no","stimuli/22-Inongruent.jpg","z","","","","","left","z","true"
"","null","html-keyboard-response","182","2.0.0","198167","p6k37xnjjoz","smaller","panda","Something to do with visual perception","no","<p>Correct!</p>","null","","","","","","",""
"","null","html-keyboard-response","183","2.0.0","199170","p6k37xnjjoz","smaller","panda","Something to do with visual perception","no","<div style=""font-size:60px;"">+</div>","null","","","","","","",""
"","542","image-keyboard-response","184","2.0.0","199721","p6k37xnjjoz","smaller","panda","Something to do with visual perception","no","stimuli/28-Congruent.jpg","m","","","","","right","m","true"
"","null","html-keyboard-response","185","2.0.0","200623","p6k37xnjjoz","smaller","panda","Something to do with visual perception","no","<p>Correct!</p>","null","","","","","","",""
"","null","html-keyboard-response","186","2.0.0","201627","p6k37xnjjoz","smaller","panda","Something to do with visual perception","no","<div style=""font-size:60px;"">+</div>","null","","","","","","",""
"","1164","image-keyboard-response","187","2.0.0","202801","p6k37xnjjoz","smaller","panda","Something to do with visual perception","no","stimuli/25-Congruent.jpg","m","","","","","right","m","true"
"","null","html-keyboard-response","188","2.0.0","203703","p6k37xnjjoz","smaller","panda","Something to do with visual perception","no","<p>Correct!</p>","null","","","","","","",""
"","null","html-keyboard-response","189","2.0.0","204707","p6k37xnjjoz","smaller","panda","Something to do with visual perception","no","<div style=""font-size:60px;"">+</div>","null","","","","","","",""
"","454","image-keyboard-response","190","2.0.0","205173","p6k37xnjjoz","smaller","panda","Something to do with visual perception","no","stimuli/19-Inongruent.jpg","z","","","","","left","z","true"
"","null","html-keyboard-response","191","2.0.0","206076","p6k37xnjjoz","smaller","panda","Something to do with visual perception","no","<p>Correct!</p>","null","","","","","","",""
"","null","html-keyboard-response","192","2.0.0","207080","p6k37xnjjoz","smaller","panda","Something to do with visual perception","no","<div style=""font-size:60px;"">+</div>","null","","","","","","",""
"","598","image-keyboard-response","193","2.0.0","207687","p6k37xnjjoz","smaller","panda","Something to do with visual perception","no","stimuli/17-Inongruent.jpg","z","","","","","left","z","true"
"","null","html-keyboard-response","194","2.0.0","208590","p6k37xnjjoz","smaller","panda","Something to do with visual perception","no","<p>Correct!</p>","null","","","","","","",""
"","null","html-keyboard-response","195","2.0.0","209593","p6k37xnjjoz","smaller","panda","Something to do with visual perception","no","<div style=""font-size:60px;"">+</div>","null","","","","","","",""
"","1359","image-keyboard-response","196","2.0.0","210962","p6k37xnjjoz","smaller","panda","Something to do with visual perception","no","stimuli/3-Congruent.jpg","m","","","","","right","m","true"
"","null","html-keyboard-response","197","2.0.0","211865","p6k37xnjjoz","smaller","panda","Something to do with visual perception","no","<p>Correct!</p>","null","","","","","","",""
"","null","html-keyboard-response","198","2.0.0","212869","p6k37xnjjoz","smaller","panda","Something to do with visual perception","no","<div style=""font-size:60px;"">+</div>","null","","","","","","",""
"","587","image-keyboard-response","199","2.0.0","213459","p6k37xnjjoz","smaller","panda","Something to do with visual perception","no","stimuli/3-Congruent.jpg","m","","","","","right","m","true"
"","null","html-keyboard-response","200","2.0.0","214362","p6k37xnjjoz","smaller","panda","Something to do with visual perception","no","<p>Correct!</p>","null","","","","","","",""
"","null","html-keyboard-response","201","2.0.0","215366","p6k37xnjjoz","smaller","panda","Something to do with visual perception","no","<div style=""font-size:60px;"">+</div>","null","","","","","","",""
"","1536","image-keyboard-response","202","2.0.0","216911","p6k37xnjjoz","smaller","panda","Something to do with visual perception","no","stimuli/30-Inongruent.jpg","z","","","","","left","z","true"
"","null","html-keyboard-response","203","2.0.0","217814","p6k37xnjjoz","smaller","panda","Something to do with visual perception","no","<p>Correct!</p>","null","","","","","","",""
"","null","html-keyboard-response","204","2.0.0","218817","p6k37xnjjoz","smaller","panda","Something to do with visual perception","no","<div style=""font-size:60px;"">+</div>","null","","","","","","",""
"","1600","image-keyboard-response","205","2.0.0","220426","p6k37xnjjoz","smaller","panda","Something to do with visual perception","no","stimuli/20-Inongruent.jpg","z","","","","","left","z","true"
"","null","html-keyboard-response","206","2.0.0","221329","p6k37xnjjoz","smaller","panda","Something to do with visual perception","no","<p>Correct!</p>","null","","","","","","",""
"","null","html-keyboard-response","207","2.0.0","222331","p6k37xnjjoz","smaller","panda","Something to do with visual perception","no","<div style=""font-size:60px;"">+</div>","null","","","","","","",""
"","2225","image-keyboard-response","208","2.0.0","224564","p6k37xnjjoz","smaller","panda","Something to do with visual perception","no","stimuli/4-Congruent.jpg","m","","","","","right","m","true"
"","null","html-keyboard-response","209","2.0.0","225468","p6k37xnjjoz","smaller","panda","Something to do with visual perception","no","<p>Correct!</p>","null","","","","","","",""
"","null","html-keyboard-response","210","2.0.0","226471","p6k37xnjjoz","smaller","panda","Something to do with visual perception","no","<div style=""font-size:60px;"">+</div>","null","","","","","","",""
"","603","image-keyboard-response","211","2.0.0","227084","p6k37xnjjoz","smaller","panda","Something to do with visual perception","no","stimuli/13-Inongruent.jpg","z","","","","","left","z","true"
"","null","html-keyboard-response","212","2.0.0","227987","p6k37xnjjoz","smaller","panda","Something to do with visual perception","no","<p>Correct!</p>","null","","","","","","",""
"","null","html-keyboard-response","213","2.0.0","228989","p6k37xnjjoz","smaller","panda","Something to do with visual perception","no","<div style=""font-size:60px;"">+</div>","null","","","","","","",""
"","518","image-keyboard-response","214","2.0.0","229517","p6k37xnjjoz","smaller","panda","Something to do with visual perception","no","stimuli/6-Congruent.jpg","m","","","","","right","m","true"
"","null","html-keyboard-response","215","2.0.0","230420","p6k37xnjjoz","smaller","panda","Something to do with visual perception","no","<p>Correct!</p>","null","","","","","","",""
"","null","html-keyboard-response","216","2.0.0","231424","p6k37xnjjoz","smaller","panda","Something to do with visual perception","no","<div style=""font-size:60px;"">+</div>","null","","","","","","",""
"","466","image-keyboard-response","217","2.0.0","231899","p6k37xnjjoz","smaller","panda","Something to do with visual perception","no","stimuli/6-Inongruent.jpg","z","","","","","left","z","true"
"","null","html-keyboard-response","218","2.0.0","232803","p6k37xnjjoz","smaller","panda","Something to do with visual perception","no","<p>Correct!</p>","null","","","","","","",""
"","null","html-keyboard-response","219","2.0.0","233808","p6k37xnjjoz","smaller","panda","Something to do with visual perception","no","<div style=""font-size:60px;"">+</div>","null","","","","","","",""
"","589","image-keyboard-response","220","2.0.0","234400","p6k37xnjjoz","smaller","panda","Something to do with visual perception","no","stimuli/30-Inongruent.jpg","z","","","","","left","z","true"
"","null","html-keyboard-response","221","2.0.0","235303","p6k37xnjjoz","smaller","panda","Something to do with visual perception","no","<p>Correct!</p>","null","","","","","","",""
"","null","html-keyboard-response","222","2.0.0","236307","p6k37xnjjoz","smaller","panda","Something to do with visual perception","no","<div style=""font-size:60px;"">+</div>","null","","","","","","",""
"","874","image-keyboard-response","223","2.0.0","237191","p6k37xnjjoz","smaller","panda","Something to do with visual perception","no","stimuli/7-Inongruent.jpg","z","","","","","left","z","true"
"","null","html-keyboard-response","224","2.0.0","238094","p6k37xnjjoz","smaller","panda","Something to do with visual perception","no","<p>Correct!</p>","null","","","","","","",""
"","null","html-keyboard-response","225","2.0.0","239097","p6k37xnjjoz","smaller","panda","Something to do with visual perception","no","<div style=""font-size:60px;"">+</div>","null","","","","","","",""
"","782","image-keyboard-response","226","2.0.0","239882","p6k37xnjjoz","smaller","panda","Something to do with visual perception","no","stimuli/25-Congruent.jpg","m","","","","","right","m","true"
"","null","html-keyboard-response","227","2.0.0","240785","p6k37xnjjoz","smaller","panda","Something to do with visual perception","no","<p>Correct!</p>","null","","","","","","",""
"","null","html-keyboard-response","228","2.0.0","241788","p6k37xnjjoz","smaller","panda","Something to do with visual perception","no","<div style=""font-size:60px;"">+</div>","null","","","","","","",""
"","547","image-keyboard-response","229","2.0.0","242343","p6k37xnjjoz","smaller","panda","Something to do with visual perception","no","stimuli/8-Inongruent.jpg","z","","","","","left","z","true"
"","null","html-keyboard-response","230","2.0.0","243245","p6k37xnjjoz","smaller","panda","Something to do with visual perception","no","<p>Correct!</p>","null","","","","","","",""
"","null","html-keyboard-response","231","2.0.0","244248","p6k37xnjjoz","smaller","panda","Something to do with visual perception","no","<div style=""font-size:60px;"">+</div>","null","","","","","","",""
"","829","image-keyboard-response","232","2.0.0","245080","p6k37xnjjoz","smaller","panda","Something to do with visual perception","no","stimuli/28-Congruent.jpg","m","","","","","right","m","true"
"","null","html-keyboard-response","233","2.0.0","245982","p6k37xnjjoz","smaller","panda","Something to do with visual perception","no","<p>Correct!</p>","null","","","","","","",""
"","null","html-keyboard-response","234","2.0.0","246985","p6k37xnjjoz","smaller","panda","Something to do with visual perception","no","<div style=""font-size:60px;"">+</div>","null","","","","","","",""
"","714","image-keyboard-response","235","2.0.0","247708","p6k37xnjjoz","smaller","panda","Something to do with visual perception","no","stimuli/30-Congruent.jpg","m","","","","","right","m","true"
"","null","html-keyboard-response","236","2.0.0","248611","p6k37xnjjoz","smaller","panda","Something to do with visual perception","no","<p>Correct!</p>","null","","","","","","",""
"","null","html-keyboard-response","237","2.0.0","249613","p6k37xnjjoz","smaller","panda","Something to do with visual perception","no","<div style=""font-size:60px;"">+</div>","null","","","","","","",""
"","849","image-keyboard-response","238","2.0.0","250472","p6k37xnjjoz","smaller","panda","Something to do with visual perception","no","stimuli/9-Congruent.jpg","m","","","","","right","m","true"
"","null","html-keyboard-response","239","2.0.0","251375","p6k37xnjjoz","smaller","panda","Something to do with visual perception","no","<p>Correct!</p>","null","","","","","","",""
"","null","html-keyboard-response","240","2.0.0","252378","p6k37xnjjoz","smaller","panda","Something to do with visual perception","no","<div style=""font-size:60px;"">+</div>","null","","","","","","",""
"","980","image-keyboard-response","241","2.0.0","253365","p6k37xnjjoz","smaller","panda","Something to do with visual perception","no","stimuli/11-Congruent.jpg","m","","","","","right","m","true"
"","null","html-keyboard-response","242","2.0.0","254269","p6k37xnjjoz","smaller","panda","Something to do with visual perception","no","<p>Correct!</p>","null","","","","","","",""
"","null","html-keyboard-response","243","2.0.0","255271","p6k37xnjjoz","smaller","panda","Something to do with visual perception","no","<div style=""font-size:60px;"">+</div>","null","","","","","","",""
"","530","image-keyboard-response","244","2.0.0","255812","p6k37xnjjoz","smaller","panda","Something to do with visual perception","no","stimuli/9-Inongruent.jpg","z","","","","","left","z","true"
"","null","html-keyboard-response","245","2.0.0","256715","p6k37xnjjoz","smaller","panda","Something to do with visual perception","no","<p>Correct!</p>","null","","","","","","",""
"","null","html-keyboard-response","246","2.0.0","257720","p6k37xnjjoz","smaller","panda","Something to do with visual perception","no","<div style=""font-size:60px;"">+</div>","null","","","","","","",""
"","856","image-keyboard-response","247","2.0.0","258579","p6k37xnjjoz","smaller","panda","Something to do with visual perception","no","stimuli/16-Inongruent.jpg","z","","","","","left","z","true"
"","null","html-keyboard-response","248","2.0.0","259482","p6k37xnjjoz","smaller","panda","Something to do with visual perception","no","<p>Correct!</p>","null","","","","","","",""
"","null","html-keyboard-response","249","2.0.0","260485","p6k37xnjjoz","smaller","panda","Something to do with visual perception","no","<div style=""font-size:60px;"">+</div>","null","","","","","","",""
"","465","image-keyboard-response","250","2.0.0","260953","p6k37xnjjoz","smaller","panda","Something to do with visual perception","no","stimuli/14-Congruent.jpg","m","","","","","right","m","true"
"","null","html-keyboard-response","251","2.0.0","261856","p6k37xnjjoz","smaller","panda","Something to do with visual perception","no","<p>Correct!</p>","null","","","","","","",""
"","null","html-keyboard-response","252","2.0.0","262860","p6k37xnjjoz","smaller","panda","Something to do with visual perception","no","<div style=""font-size:60px;"">+</div>","null","","","","","","",""
"","777","image-keyboard-response","253","2.0.0","263639","p6k37xnjjoz","smaller","panda","Something to do with visual perception","no","stimuli/14-Inongruent.jpg","z","","","","","left","z","true"
"","null","html-keyboard-response","254","2.0.0","264542","p6k37xnjjoz","smaller","panda","Something to do with visual perception","no","<p>Correct!</p>","null","","","","","","",""
"","null","html-keyboard-response","255","2.0.0","265545","p6k37xnjjoz","smaller","panda","Something to do with visual perception","no","<div style=""font-size:60px;"">+</div>","null","","","","","","",""
"","1623","image-keyboard-response","256","2.0.0","267177","p6k37xnjjoz","smaller","panda","Something to do with visual perception","no","stimuli/5-Congruent.jpg","m","","","","","right","m","true"
"","null","html-keyboard-response","257","2.0.0","268080","p6k37xnjjoz","smaller","panda","Something to do with visual perception","no","<p>Correct!</p>","null","","","","","","",""
"","null","html-keyboard-response","258","2.0.0","269083","p6k37xnjjoz","smaller","panda","Something to do with visual perception","no","<div style=""font-size:60px;"">+</div>","null","","","","","","",""
"","582","image-keyboard-response","259","2.0.0","269667","p6k37xnjjoz","smaller","panda","Something to do with visual perception","no","stimuli/8-Inongruent.jpg","z","","","","","left","z","true"
"","null","html-keyboard-response","260","2.0.0","270569","p6k37xnjjoz","smaller","panda","Something to do with visual perception","no","<p>Correct!</p>","null","","","","","","",""
"","null","html-keyboard-response","261","2.0.0","271571","p6k37xnjjoz","smaller","panda","Something to do with visual perception","no","<div style=""font-size:60px;"">+</div>","null","","","","","","",""
"","1167","image-keyboard-response","262","2.0.0","272749","p6k37xnjjoz","smaller","panda","Something to do with visual perception","no","stimuli/27-Inongruent.jpg","z","","","","","left","z","true"
"","null","html-keyboard-response","263","2.0.0","273651","p6k37xnjjoz","smaller","panda","Something to do with visual perception","no","<p>Correct!</p>","null","","","","","","",""
"","null","html-keyboard-response","264","2.0.0","274653","p6k37xnjjoz","smaller","panda","Something to do with visual perception","no","<div style=""font-size:60px;"">+</div>","null","","","","","","",""
"","558","image-keyboard-response","265","2.0.0","275220","p6k37xnjjoz","smaller","panda","Something to do with visual perception","no","stimuli/32-Inongruent.jpg","z","","","","","left","z","true"
"","null","html-keyboard-response","266","2.0.0","276122","p6k37xnjjoz","smaller","panda","Something to do with visual perception","no","<p>Correct!</p>","null","","","","","","",""
"","null","html-keyboard-response","267","2.0.0","277126","p6k37xnjjoz","smaller","panda","Something to do with visual perception","no","<div style=""font-size:60px;"">+</div>","null","","","","","","",""
"","554","image-keyboard-response","268","2.0.0","277682","p6k37xnjjoz","smaller","panda","Something to do with visual perception","no","stimuli/13-Inongruent.jpg","z","","","","","left","z","true"
"","null","html-keyboard-response","269","2.0.0","278585","p6k37xnjjoz","smaller","panda","Something to do with visual perception","no","<p>Correct!</p>","null","","","","","","",""
"","null","html-keyboard-response","270","2.0.0","279587","p6k37xnjjoz","smaller","panda","Something to do with visual perception","no","<div style=""font-size:60px;"">+</div>","null","","","","","","",""
"","564","image-keyboard-response","271","2.0.0","280157","p6k37xnjjoz","smaller","panda","Something to do with visual perception","no","stimuli/35-Inongruent.jpg","z","","","","","left","z","true"
"","null","html-keyboard-response","272","2.0.0","281061","p6k37xnjjoz","smaller","panda","Something to do with visual perception","no","<p>Correct!</p>","null","","","","","","",""
"","null","html-keyboard-response","273","2.0.0","282065","p6k37xnjjoz","smaller","panda","Something to do with visual perception","no","<div style=""font-size:60px;"">+</div>","null","","","","","","",""
"","861","image-keyboard-response","274","2.0.0","282930","p6k37xnjjoz","smaller","panda","Something to do with visual perception","no","stimuli/13-Congruent.jpg","m","","","","","right","m","true"
"","null","html-keyboard-response","275","2.0.0","283833","p6k37xnjjoz","smaller","panda","Something to do with visual perception","no","<p>Correct!</p>","null","","","","","","",""
"","null","html-keyboard-response","276","2.0.0","284836","p6k37xnjjoz","smaller","panda","Something to do with visual perception","no","<div style=""font-size:60px;"">+</div>","null","","","","","","",""
"","932","image-keyboard-response","277","2.0.0","285776","p6k37xnjjoz","smaller","panda","Something to do with visual perception","no","stimuli/34-Congruent.jpg","m","","","","","right","m","true"
"","null","html-keyboard-response","278","2.0.0","286679","p6k37xnjjoz","smaller","panda","Something to do with visual perception","no","<p>Correct!</p>","null","","","","","","",""
"","null","html-keyboard-response","279","2.0.0","287683","p6k37xnjjoz","smaller","panda","Something to do with visual perception","no","<div style=""font-size:60px;"">+</div>","null","","","","","","",""
"","2480","image-keyboard-response","280","2.0.0","290172","p6k37xnjjoz","smaller","panda","Something to do with visual perception","no","stimuli/23-Congruent.jpg","m","","","","","right","m","true"
"","null","html-keyboard-response","281","2.0.0","291074","p6k37xnjjoz","smaller","panda","Something to do with visual perception","no","<p>Correct!</p>","null","","","","","","",""
"","null","html-keyboard-response","282","2.0.0","292078","p6k37xnjjoz","smaller","panda","Something to do with visual perception","no","<div style=""font-size:60px;"">+</div>","null","","","","","","",""
"","782","image-keyboard-response","283","2.0.0","292863","p6k37xnjjoz","smaller","panda","Something to do with visual perception","no","stimuli/5-Congruent.jpg","m","","","","","right","m","true"
"","null","html-keyboard-response","284","2.0.0","293765","p6k37xnjjoz","smaller","panda","Something to do with visual perception","no","<p>Correct!</p>","null","","","","","","",""
"","null","html-keyboard-response","285","2.0.0","294768","p6k37xnjjoz","smaller","panda","Something to do with visual perception","no","<div style=""font-size:60px;"">+</div>","null","","","","","","",""
"","477","image-keyboard-response","286","2.0.0","295254","p6k37xnjjoz","smaller","panda","Something to do with visual perception","no","stimuli/36-Inongruent.jpg","z","","","","","left","z","true"
"","null","html-keyboard-response","287","2.0.0","296156","p6k37xnjjoz","smaller","panda","Something to do with visual perception","no","<p>Correct!</p>","null","","","","","","",""
"","null","html-keyboard-response","288","2.0.0","297160","p6k37xnjjoz","smaller","panda","Something to do with visual perception","no","<div style=""font-size:60px;"">+</div>","null","","","","","","",""
"","550","image-keyboard-response","289","2.0.0","297712","p6k37xnjjoz","smaller","panda","Something to do with visual perception","no","stimuli/9-Inongruent.jpg","z","","","","","left","z","true"
"","null","html-keyboard-response","290","2.0.0","298614","p6k37xnjjoz","smaller","panda","Something to do with visual perception","no","<p>Correct!</p>","null","","","","","","",""
"","null","html-keyboard-response","291","2.0.0","299618","p6k37xnjjoz","smaller","panda","Something to do with visual perception","no","<div style=""font-size:60px;"">+</div>","null","","","","","","",""
"","685","image-keyboard-response","292","2.0.0","300312","p6k37xnjjoz","smaller","panda","Something to do with visual perception","no","stimuli/25-Inongruent.jpg","z","","","","","left","z","true"
"","null","html-keyboard-response","293","2.0.0","301214","p6k37xnjjoz","smaller","panda","Something to do with visual perception","no","<p>Correct!</p>","null","","","","","","",""
"","null","html-keyboard-response","294","2.0.0","302218","p6k37xnjjoz","smaller","panda","Something to do with visual perception","no","<div style=""font-size:60px;"">+</div>","null","","","","","","",""
"","551","image-keyboard-response","295","2.0.0","302778","p6k37xnjjoz","smaller","panda","Something to do with visual perception","no","stimuli/15-Inongruent.jpg","z","","","","","left","z","true"
"","null","html-keyboard-response","296","2.0.0","303680","p6k37xnjjoz","smaller","panda","Something to do with visual perception","no","<p>Correct!</p>","null","","","","","","",""
"","null","html-keyboard-response","297","2.0.0","304684","p6k37xnjjoz","smaller","panda","Something to do with visual perception","no","<div style=""font-size:60px;"">+</div>","null","","","","","","",""
"","496","image-keyboard-response","298","2.0.0","305186","p6k37xnjjoz","smaller","panda","Something to do with visual perception","no","stimuli/25-Inongruent.jpg","z","","","","","left","z","true"
"","null","html-keyboard-response","299","2.0.0","306089","p6k37xnjjoz","smaller","panda","Something to do with visual perception","no","<p>Correct!</p>","null","","","","","","",""
"","null","html-keyboard-response","300","2.0.0","307094","p6k37xnjjoz","smaller","panda","Something to do with visual perception","no","<div style=""font-size:60px;"">+</div>","null","","","","","","",""
"","642","image-keyboard-response","301","2.0.0","307747","p6k37xnjjoz","smaller","panda","Something to do with visual perception","no","stimuli/10-Inongruent.jpg","z","","","","","left","z","true"
"","null","html-keyboard-response","302","2.0.0","308650","p6k37xnjjoz","smaller","panda","Something to do with visual perception","no","<p>Correct!</p>","null","","","","","","",""
"","null","html-keyboard-response","303","2.0.0","309654","p6k37xnjjoz","smaller","panda","Something to do with visual perception","no","<div style=""font-size:60px;"">+</div>","null","","","","","","",""
"","664","image-keyboard-response","304","2.0.0","310328","p6k37xnjjoz","smaller","panda","Something to do with visual perception","no","stimuli/33-Congruent.jpg","m","","","","","right","m","true"
"","null","html-keyboard-response","305","2.0.0","311230","p6k37xnjjoz","smaller","panda","Something to do with visual perception","no","<p>Correct!</p>","null","","","","","","",""
"","null","html-keyboard-response","306","2.0.0","312233","p6k37xnjjoz","smaller","panda","Something to do with visual perception","no","<div style=""font-size:60px;"">+</div>","null","","","","","","",""
"","1369","image-keyboard-response","307","2.0.0","313611","p6k37xnjjoz","smaller","panda","Something to do with visual perception","no","stimuli/12-Inongruent.jpg","z","","","","","left","z","true"
"","null","html-keyboard-response","308","2.0.0","314514","p6k37xnjjoz","smaller","panda","Something to do with visual perception","no","<p>Correct!</p>","null","","","","","","",""
"","null","html-keyboard-response","309","2.0.0","315517","p6k37xnjjoz","smaller","panda","Something to do with visual perception","no","<div style=""font-size:60px;"">+</div>","null","","","","","","",""
"","1174","image-keyboard-response","310","2.0.0","316700","p6k37xnjjoz","smaller","panda","Something to do with visual perception","no","stimuli/21-Inongruent.jpg","z","","","","","left","z","true"
"","null","html-keyboard-response","311","2.0.0","317603","p6k37xnjjoz","smaller","panda","Something to do with visual perception","no","<p>Correct!</p>","null","","","","","","",""
"","null","html-keyboard-response","312","2.0.0","318607","p6k37xnjjoz","smaller","panda","Something to do with visual perception","no","<div style=""font-size:60px;"">+</div>","null","","","","","","",""
"","841","image-keyboard-response","313","2.0.0","319457","p6k37xnjjoz","smaller","panda","Something to do with visual perception","no","stimuli/28-Inongruent.jpg","z","","","","","left","z","true"
"","null","html-keyboard-response","314","2.0.0","320361","p6k37xnjjoz","smaller","panda","Something to do with visual perception","no","<p>Correct!</p>","null","","","","","","",""
"","null","html-keyboard-response","315","2.0.0","321364","p6k37xnjjoz","smaller","panda","Something to do with visual perception","no","<div style=""font-size:60px;"">+</div>","null","","","","","","",""
"","1128","image-keyboard-response","316","2.0.0","322502","p6k37xnjjoz","smaller","panda","Something to do with visual perception","no","stimuli/2-Inongruent.jpg","z","","","","","left","z","true"
"","null","html-keyboard-response","317","2.0.0","323404","p6k37xnjjoz","smaller","panda","Something to do with visual perception","no","<p>Correct!</p>","null","","","","","","",""
"","null","html-keyboard-response","318","2.0.0","324407","p6k37xnjjoz","smaller","panda","Something to do with visual perception","no","<div style=""font-size:60px;"">+</div>","null","","","","","","",""
"","1023","image-keyboard-response","319","2.0.0","325441","p6k37xnjjoz","smaller","panda","Something to do with visual perception","no","stimuli/19-Congruent.jpg","m","","","","","right","m","true"
"","null","html-keyboard-response","320","2.0.0","326345","p6k37xnjjoz","smaller","panda","Something to do with visual perception","no","<p>Correct!</p>","null","","","","","","",""
"","null","html-keyboard-response","321","2.0.0","327349","p6k37xnjjoz","smaller","panda","Something to do with visual perception","no","<div style=""font-size:60px;"">+</div>","null","","","","","","",""
"","2808","image-keyboard-response","322","2.0.0","330167","p6k37xnjjoz","smaller","panda","Something to do with visual perception","no","stimuli/1-Inongruent.jpg","z","","","","","left","z","true"
"","null","html-keyboard-response","323","2.0.0","331069","p6k37xnjjoz","smaller","panda","Something to do with visual perception","no","<p>Correct!</p>","null","","","","","","",""
"","null","html-keyboard-response","324","2.0.0","332072","p6k37xnjjoz","smaller","panda","Something to do with visual perception","no","<div style=""font-size:60px;"">+</div>","null","","","","","","",""
"","1005","image-keyboard-response","325","2.0.0","333088","p6k37xnjjoz","smaller","panda","Something to do with visual perception","no","stimuli/34-Inongruent.jpg","z","","","","","left","z","true"
"","null","html-keyboard-response","326","2.0.0","333990","p6k37xnjjoz","smaller","panda","Something to do with visual perception","no","<p>Correct!</p>","null","","","","","","",""
"","null","html-keyboard-response","327","2.0.0","334994","p6k37xnjjoz","smaller","panda","Something to do with visual perception","no","<div style=""font-size:60px;"">+</div>","null","","","","","","",""
"","4350","image-keyboard-response","328","2.0.0","339353","p6k37xnjjoz","smaller","panda","Something to do with visual perception","no","stimuli/18-Inongruent.jpg","z","","","","","left","z","true"
"","null","html-keyboard-response","329","2.0.0","340255","p6k37xnjjoz","smaller","panda","Something to do with visual perception","no","<p>Correct!</p>","null","","","","","","",""
"","null","html-keyboard-response","330","2.0.0","341259","p6k37xnjjoz","smaller","panda","Something to do with visual perception","no","<div style=""font-size:60px;"">+</div>","null","","","","","","",""
"","519","image-keyboard-response","331","2.0.0","341787","p6k37xnjjoz","smaller","panda","Something to do with visual perception","no","stimuli/24-Congruent.jpg","m","","","","","right","m","true"
"","null","html-keyboard-response","332","2.0.0","342689","p6k37xnjjoz","smaller","panda","Something to do with visual perception","no","<p>Correct!</p>","null","","","","","","",""
"","null","html-keyboard-response","333","2.0.0","343692","p6k37xnjjoz","smaller","panda","Something to do with visual perception","no","<div style=""font-size:60px;"">+</div>","null","","","","","","",""
"","696","image-keyboard-response","334","2.0.0","344391","p6k37xnjjoz","smaller","panda","Something to do with visual perception","no","stimuli/34-Inongruent.jpg","z","","","","","left","z","true"
"","null","html-keyboard-response","335","2.0.0","345293","p6k37xnjjoz","smaller","panda","Something to do with visual perception","no","<p>Correct!</p>","null","","","","","","",""
"","null","html-keyboard-response","336","2.0.0","346297","p6k37xnjjoz","smaller","panda","Something to do with visual perception","no","<div style=""font-size:60px;"">+</div>","null","","","","","","",""
"","1098","image-keyboard-response","337","2.0.0","347405","p6k37xnjjoz","smaller","panda","Something to do with visual perception","no","stimuli/7-Inongruent.jpg","z","","","","","left","z","true"
"","null","html-keyboard-response","338","2.0.0","348308","p6k37xnjjoz","smaller","panda","Something to do with visual perception","no","<p>Correct!</p>","null","","","","","","",""
"","null","html-keyboard-response","339","2.0.0","349310","p6k37xnjjoz","smaller","panda","Something to do with visual perception","no","<div style=""font-size:60px;"">+</div>","null","","","","","","",""
"","511","image-keyboard-response","340","2.0.0","349824","p6k37xnjjoz","smaller","panda","Something to do with visual perception","no","stimuli/1-Inongruent.jpg","z","","","","","left","z","true"
"","null","html-keyboard-response","341","2.0.0","350727","p6k37xnjjoz","smaller","panda","Something to do with visual perception","no","<p>Correct!</p>","null","","","","","","",""
"","null","html-keyboard-response","342","2.0.0","351731","p6k37xnjjoz","smaller","panda","Something to do with visual perception","no","<div style=""font-size:60px;"">+</div>","null","","","","","","",""
"","564","image-keyboard-response","343","2.0.0","352304","p6k37xnjjoz","smaller","panda","Something to do with visual perception","no","stimuli/15-Congruent.jpg","m","","","","","right","m","true"
"","null","html-keyboard-response","344","2.0.0","353205","p6k37xnjjoz","smaller","panda","Something to do with visual perception","no","<p>Correct!</p>","null","","","","","","",""
"","null","html-keyboard-response","345","2.0.0","354208","p6k37xnjjoz","smaller","panda","Something to do with visual perception","no","<div style=""font-size:60px;"">+</div>","null","","","","","","",""
"","1006","image-keyboard-response","346","2.0.0","355221","p6k37xnjjoz","smaller","panda","Something to do with visual perception","no","stimuli/6-Congruent.jpg","m","","","","","right","m","true"
"","null","html-keyboard-response","347","2.0.0","356124","p6k37xnjjoz","smaller","panda","Something to do with visual perception","no","<p>Correct!</p>","null","","","","","","",""
"","null","html-keyboard-response","348","2.0.0","357127","p6k37xnjjoz","smaller","panda","Something to do with visual perception","no","<div style=""font-size:60px;"">+</div>","null","","","","","","",""
"","1147","image-keyboard-response","349","2.0.0","358277","p6k37xnjjoz","smaller","panda","Something to do with visual perception","no","stimuli/33-Congruent.jpg","m","","","","","right","m","true"
"","null","html-keyboard-response","350","2.0.0","359179","p6k37xnjjoz","smaller","panda","Something to do with visual perception","no","<p>Correct!</p>","null","","","","","","",""
"","null","html-keyboard-response","351","2.0.0","360182","p6k37xnjjoz","smaller","panda","Something to do with visual perception","no","<div style=""font-size:60px;"">+</div>","null","","","","","","",""
"","708","image-keyboard-response","352","2.0.0","360899","p6k37xnjjoz","smaller","panda","Something to do with visual perception","no","stimuli/20-Inongruent.jpg","z","","","","","left","z","true"
"","null","html-keyboard-response","353","2.0.0","361802","p6k37xnjjoz","smaller","panda","Something to do with visual perception","no","<p>Correct!</p>","null","","","","","","",""
"","null","html-keyboard-response","354","2.0.0","362806","p6k37xnjjoz","smaller","panda","Something to do with visual perception","no","<div style=""font-size:60px;"">+</div>","null","","","","","","",""
"","637","image-keyboard-response","355","2.0.0","363452","p6k37xnjjoz","smaller","panda","Something to do with visual perception","no","stimuli/32-Congruent.jpg","m","","","","","right","m","true"
"","null","html-keyboard-response","356","2.0.0","364355","p6k37xnjjoz","smaller","panda","Something to do with visual perception","no","<p>Correct!</p>","null","","","","","","",""
"","null","html-keyboard-response","357","2.0.0","365359","p6k37xnjjoz","smaller","panda","Something to do with visual perception","no","<div style=""font-size:60px;"">+</div>","null","","","","","","",""
"","838","image-keyboard-response","358","2.0.0","366207","p6k37xnjjoz","smaller","panda","Something to do with visual perception","no","stimuli/23-Inongruent.jpg","z","","","","","left","z","true"
"","null","html-keyboard-response","359","2.0.0","367111","p6k37xnjjoz","smaller","panda","Something to do with visual perception","no","<p>Correct!</p>","null","","","","","","",""
"","null","html-keyboard-response","360","2.0.0","368115","p6k37xnjjoz","smaller","panda","Something to do with visual perception","no","<div style=""font-size:60px;"">+</div>","null","","","","","","",""
"","871","image-keyboard-response","361","2.0.0","368995","p6k37xnjjoz","smaller","panda","Something to do with visual perception","no","stimuli/35-Congruent.jpg","m","","","","","right","m","true"
"","null","html-keyboard-response","362","2.0.0","369899","p6k37xnjjoz","smaller","panda","Something to do with visual perception","no","<p>Correct!</p>","null","","","","","","",""
"","null","html-keyboard-response","363","2.0.0","370902","p6k37xnjjoz","smaller","panda","Something to do with visual perception","no","<div style=""font-size:60px;"">+</div>","null","","","","","","",""
"","466","image-keyboard-response","364","2.0.0","371377","p6k37xnjjoz","smaller","panda","Something to do with visual perception","no","stimuli/12-Congruent.jpg","m","","","","","right","m","true"
"","null","html-keyboard-response","365","2.0.0","372279","p6k37xnjjoz","smaller","panda","Something to do with visual perception","no","<p>Correct!</p>","null","","","","","","",""
"","null","html-keyboard-response","366","2.0.0","373281","p6k37xnjjoz","smaller","panda","Something to do with visual perception","no","<div style=""font-size:60px;"">+</div>","null","","","","","","",""
"","452","image-keyboard-response","367","2.0.0","373740","p6k37xnjjoz","smaller","panda","Something to do with visual perception","no","stimuli/21-Congruent.jpg","m","","","","","right","m","true"
"","null","html-keyboard-response","368","2.0.0","374643","p6k37xnjjoz","smaller","panda","Something to do with visual perception","no","<p>Correct!</p>","null","","","","","","",""
"","null","html-keyboard-response","369","2.0.0","375646","p6k37xnjjoz","smaller","panda","Something to do with visual perception","no","<div style=""font-size:60px;"">+</div>","null","","","","","","",""
"","507","image-keyboard-response","370","2.0.0","376163","p6k37xnjjoz","smaller","panda","Something to do with visual perception","no","stimuli/29-Congruent.jpg","m","","","","","right","m","true"
"","null","html-keyboard-response","371","2.0.0","377065","p6k37xnjjoz","smaller","panda","Something to do with visual perception","no","<p>Correct!</p>","null","","","","","","",""
"","null","html-keyboard-response","372","2.0.0","378068","p6k37xnjjoz","smaller","panda","Something to do with visual perception","no","<div style=""font-size:60px;"">+</div>","null","","","","","","",""
"","532","image-keyboard-response","373","2.0.0","378602","p6k37xnjjoz","smaller","panda","Something to do with visual perception","no","stimuli/34-Congruent.jpg","m","","","","","right","m","true"
"","null","html-keyboard-response","374","2.0.0","379503","p6k37xnjjoz","smaller","panda","Something to do with visual perception","no","<p>Correct!</p>","null","","","","","","",""
"","null","html-keyboard-response","375","2.0.0","380506","p6k37xnjjoz","smaller","panda","Something to do with visual perception","no","<div style=""font-size:60px;"">+</div>","null","","","","","","",""
"","444","image-keyboard-response","376","2.0.0","380960","p6k37xnjjoz","smaller","panda","Something to do with visual perception","no","stimuli/27-Congruent.jpg","m","","","","","right","m","true"
"","null","html-keyboard-response","377","2.0.0","381862","p6k37xnjjoz","smaller","panda","Something to do with visual perception","no","<p>Correct!</p>","null","","","","","","",""
"","null","html-keyboard-response","378","2.0.0","382865","p6k37xnjjoz","smaller","panda","Something to do with visual perception","no","<div style=""font-size:60px;"">+</div>","null","","","","","","",""
"","467","image-keyboard-response","379","2.0.0","383343","p6k37xnjjoz","smaller","panda","Something to do with visual perception","no","stimuli/2-Congruent.jpg","m","","","","","right","m","true"
"","null","html-keyboard-response","380","2.0.0","384246","p6k37xnjjoz","smaller","panda","Something to do with visual perception","no","<p>Correct!</p>","null","","","","","","",""
"","null","html-keyboard-response","381","2.0.0","385251","p6k37xnjjoz","smaller","panda","Something to do with visual perception","no","<div style=""font-size:60px;"">+</div>","null","","","","","","",""
"","459","image-keyboard-response","382","2.0.0","385718","p6k37xnjjoz","smaller","panda","Something to do with visual perception","no","stimuli/5-Inongruent.jpg","z","","","","","left","z","true"
"","null","html-keyboard-response","383","2.0.0","386621","p6k37xnjjoz","smaller","panda","Something to do with visual perception","no","<p>Correct!</p>","null","","","","","","",""
"","null","html-keyboard-response","384","2.0.0","387623","p6k37xnjjoz","smaller","panda","Something to do with visual perception","no","<div style=""font-size:60px;"">+</div>","null","","","","","","",""
"","483","image-keyboard-response","385","2.0.0","388117","p6k37xnjjoz","smaller","panda","Something to do with visual perception","no","stimuli/22-Inongruent.jpg","z","","","","","left","z","true"
"","null","html-keyboard-response","386","2.0.0","389019","p6k37xnjjoz","smaller","panda","Something to do with visual perception","no","<p>Correct!</p>","null","","","","","","",""
"","null","html-keyboard-response","387","2.0.0","390023","p6k37xnjjoz","smaller","panda","Something to do with visual perception","no","<div style=""font-size:60px;"">+</div>","null","","","","","","",""
"","520","image-keyboard-response","388","2.0.0","390552","p6k37xnjjoz","smaller","panda","Something to do with visual perception","no","stimuli/27-Inongruent.jpg","z","","","","","left","z","true"
"","null","html-keyboard-response","389","2.0.0","391455","p6k37xnjjoz","smaller","panda","Something to do with visual perception","no","<p>Correct!</p>","null","","","","","","",""
"","null","html-keyboard-response","390","2.0.0","392458","p6k37xnjjoz","smaller","panda","Something to do with visual perception","no","<div style=""font-size:60px;"">+</div>","null","","","","","","",""
"","488","image-keyboard-response","391","2.0.0","392956","p6k37xnjjoz","smaller","panda","Something to do with visual perception","no","stimuli/30-Congruent.jpg","m","","","","","right","m","true"
"","null","html-keyboard-response","392","2.0.0","393860","p6k37xnjjoz","smaller","panda","Something to do with visual perception","no","<p>Correct!</p>","null","","","","","","",""
"","null","html-keyboard-response","393","2.0.0","394863","p6k37xnjjoz","smaller","panda","Something to do with visual perception","no","<div style=""font-size:60px;"">+</div>","null","","","","","","",""
"","868","image-keyboard-response","394","2.0.0","395738","p6k37xnjjoz","smaller","panda","Something to do with visual perception","no","stimuli/4-Inongruent.jpg","z","","","","","left","z","true"
"","null","html-keyboard-response","395","2.0.0","396641","p6k37xnjjoz","smaller","panda","Something to do with visual perception","no","<p>Correct!</p>","null","","","","","","",""
"","null","html-keyboard-response","396","2.0.0","397644","p6k37xnjjoz","smaller","panda","Something to do with visual perception","no","<div style=""font-size:60px;"">+</div>","null","","","","","","",""
"","533","image-keyboard-response","397","2.0.0","398179","p6k37xnjjoz","smaller","panda","Something to do with visual perception","no","stimuli/19-Congruent.jpg","m","","","","","right","m","true"
"","null","html-keyboard-response","398","2.0.0","399082","p6k37xnjjoz","smaller","panda","Something to do with visual perception","no","<p>Correct!</p>","null","","","","","","",""
"","null","html-keyboard-response","399","2.0.0","400084","p6k37xnjjoz","smaller","panda","Something to do with visual perception","no","<div style=""font-size:60px;"">+</div>","null","","","","","","",""
"","511","image-keyboard-response","400","2.0.0","400605","p6k37xnjjoz","smaller","panda","Something to do with visual perception","no","stimuli/10-Congruent.jpg","m","","","","","right","m","true"
"","null","html-keyboard-response","401","2.0.0","401508","p6k37xnjjoz","smaller","panda","Something to do with visual perception","no","<p>Correct!</p>","null","","","","","","",""
"","null","html-keyboard-response","402","2.0.0","402512","p6k37xnjjoz","smaller","panda","Something to do with visual perception","no","<div style=""font-size:60px;"">+</div>","null","","","","","","",""
"","1236","image-keyboard-response","403","2.0.0","403756","p6k37xnjjoz","smaller","panda","Something to do with visual perception","no","stimuli/31-Inongruent.jpg","z","","","","","left","z","true"
"","null","html-keyboard-response","404","2.0.0","404659","p6k37xnjjoz","smaller","panda","Something to do with visual perception","no","<p>Correct!</p>","null","","","","","","",""
"","null","html-keyboard-response","405","2.0.0","405662","p6k37xnjjoz","smaller","panda","Something to do with visual perception","no","<div style=""font-size:60px;"">+</div>","null","","","","","","",""
"","551","image-keyboard-response","406","2.0.0","406225","p6k37xnjjoz","smaller","panda","Something to do with visual perception","no","stimuli/24-Inongruent.jpg","z","","","","","left","z","true"
"","null","html-keyboard-response","407","2.0.0","407129","p6k37xnjjoz","smaller","panda","Something to do with visual perception","no","<p>Correct!</p>","null","","","","","","",""
"","null","html-keyboard-response","408","2.0.0","408133","p6k37xnjjoz","smaller","panda","Something to do with visual perception","no","<div style=""font-size:60px;"">+</div>","null","","","","","","",""
"","1428","image-keyboard-response","409","2.0.0","409572","p6k37xnjjoz","smaller","panda","Something to do with visual perception","no","stimuli/3-Inongruent.jpg","z","","","","","left","z","true"
"","null","html-keyboard-response","410","2.0.0","410475","p6k37xnjjoz","smaller","panda","Something to do with visual perception","no","<p>Correct!</p>","null","","","","","","",""
"","null","html-keyboard-response","411","2.0.0","411478","p6k37xnjjoz","smaller","panda","Something to do with visual perception","no","<div style=""font-size:60px;"">+</div>","null","","","","","","",""
"","1150","image-keyboard-response","412","2.0.0","412640","p6k37xnjjoz","smaller","panda","Something to do with visual perception","no","stimuli/17-Inongruent.jpg","z","","","","","left","z","true"
"","null","html-keyboard-response","413","2.0.0","413544","p6k37xnjjoz","smaller","panda","Something to do with visual perception","no","<p>Correct!</p>","null","","","","","","",""
"","null","html-keyboard-response","414","2.0.0","414546","p6k37xnjjoz","smaller","panda","Something to do with visual perception","no","<div style=""font-size:60px;"">+</div>","null","","","","","","",""
"","933","image-keyboard-response","415","2.0.0","415482","p6k37xnjjoz","smaller","panda","Something to do with visual perception","no","stimuli/15-Inongruent.jpg","z","","","","","left","z","true"
"","null","html-keyboard-response","416","2.0.0","416385","p6k37xnjjoz","smaller","panda","Something to do with visual perception","no","<p>Correct!</p>","null","","","","","","",""
"","null","html-keyboard-response","417","2.0.0","417389","p6k37xnjjoz","smaller","panda","Something to do with visual perception","no","<div style=""font-size:60px;"">+</div>","null","","","","","","",""
"","1072","image-keyboard-response","418","2.0.0","418469","p6k37xnjjoz","smaller","panda","Something to do with visual perception","no","stimuli/26-Congruent.jpg","m","","","","","right","m","true"
"","null","html-keyboard-response","419","2.0.0","419372","p6k37xnjjoz","smaller","panda","Something to do with visual perception","no","<p>Correct!</p>","null","","","","","","",""
"","null","html-keyboard-response","420","2.0.0","420376","p6k37xnjjoz","smaller","panda","Something to do with visual perception","no","<div style=""font-size:60px;"">+</div>","null","","","","","","",""
"","534","image-keyboard-response","421","2.0.0","420919","p6k37xnjjoz","smaller","panda","Something to do with visual perception","no","stimuli/18-Congruent.jpg","m","","","","","right","m","true"
"","null","html-keyboard-response","422","2.0.0","421821","p6k37xnjjoz","smaller","panda","Something to do with visual perception","no","<p>Correct!</p>","null","","","","","","",""
"","null","html-keyboard-response","423","2.0.0","422824","p6k37xnjjoz","smaller","panda","Something to do with visual perception","no","<div style=""font-size:60px;"">+</div>","null","","","","","","",""
"","535","image-keyboard-response","424","2.0.0","423365","p6k37xnjjoz","smaller","panda","Something to do with visual perception","no","stimuli/1-Congruent.jpg","m","","","","","right","m","true"
"","null","html-keyboard-response","425","2.0.0","424267","p6k37xnjjoz","smaller","panda","Something to do with visual perception","no","<p>Correct!</p>","null","","","","","","",""
"","null","html-keyboard-response","426","2.0.0","425271","p6k37xnjjoz","smaller","panda","Something to do with visual perception","no","<div style=""font-size:60px;"">+</div>","null","","","","","","",""
"","501","image-keyboard-response","427","2.0.0","425774","p6k37xnjjoz","smaller","panda","Something to do with visual perception","no","stimuli/35-Congruent.jpg","m","","","","","right","m","true"
"","null","html-keyboard-response","428","2.0.0","426677","p6k37xnjjoz","smaller","panda","Something to do with visual perception","no","<p>Correct!</p>","null","","","","","","",""
"","null","html-keyboard-response","429","2.0.0","427680","p6k37xnjjoz","smaller","panda","Something to do with visual perception","no","<div style=""font-size:60px;"">+</div>","null","","","","","","",""
"","518","image-keyboard-response","430","2.0.0","428207","p6k37xnjjoz","smaller","panda","Something to do with visual perception","no","stimuli/8-Congruent.jpg","m","","","","","right","m","true"
"","null","html-keyboard-response","431","2.0.0","429109","p6k37xnjjoz","smaller","panda","Something to do with visual perception","no","<p>Correct!</p>","null","","","","","","",""
"","null","html-keyboard-response","432","2.0.0","430112","p6k37xnjjoz","smaller","panda","Something to do with visual perception","no","<div style=""font-size:60px;"">+</div>","null","","","","","","",""
"","542","image-keyboard-response","433","2.0.0","430667","p6k37xnjjoz","smaller","panda","Something to do with visual perception","no","stimuli/17-Congruent.jpg","m","","","","","right","m","true"
"","null","html-keyboard-response","434","2.0.0","431570","p6k37xnjjoz","smaller","panda","Something to do with visual perception","no","<p>Correct!</p>","null","","","","","","",""
"","null","html-keyboard-response","435","2.0.0","432573","p6k37xnjjoz","smaller","panda","Something to do with visual perception","no","<div style=""font-size:60px;"">+</div>","null","","","","","","",""
"","489","image-keyboard-response","436","2.0.0","433066","p6k37xnjjoz","smaller","panda","Something to do with visual perception","no","stimuli/5-Inongruent.jpg","z","","","","","left","z","true"
"","null","html-keyboard-response","437","2.0.0","433968","p6k37xnjjoz","smaller","panda","Something to do with visual perception","no","<p>Correct!</p>","null","","","","","","",""
"","3161","html-keyboard-response","438","2.0.0","437134","p6k37xnjjoz","smaller","panda","Something to do with visual perception","no","<p>You have completed the experiment!</p>
              <p>Your accuracy was: 98.61111111111111%.</p>
              <p>Thank you for participating.</p>
              <p>Press any key to continue.</p>","Enter","","","","","","",""
"","14219","survey-text","439","2.0.0","451363","p6k37xnjjoz","smaller","panda","Something to do with visual perception","no","","{""participant_thoughts"":""Something to do with visual perception""}","","","","","","",""
"","4044","survey-text","440","2.0.0","455413","p6k37xnjjoz","smaller","panda","Something to do with visual perception","no","","{""participant_difficulties"":""no""}","","","","","","",""
"","682","html-keyboard-response","441","2.0.0","456098","p6k37xnjjoz","smaller","panda","Something to do with visual perception","no","<p>The purpose of this experiment is to determine if the real world size of a familiar object is automatically processed when viewed.</p><p>Thank you for participating!</p>","Enter","","","","","","",""
