"success","rt","trial_type","trial_index","plugin_version","time_elapsed","random_id","condition","participant","participant_thoughts","participant_difficulties","stimulus","response","timeout","failed_images","failed_audio","failed_video","correct_response","correct_response_key","correct"
"true","1247","fullscreen","0","null","2264","p6lubobgwfr","smaller","koala","to see if people get confused with the image size or the size of the subject in the image","nope","","","","","","","","",""
"","1418","html-keyboard-response","1","2.0.0","3683","p6lubobgwfr","smaller","koala","to see if people get confused with the image size or the size of the subject in the image","nope","Welcome to the Size Stroop experiment. Press any key to begin."," ","","","","","","",""
"","692","html-keyboard-response","2","2.0.0","4375","p6lubobgwfr","smaller","koala","to see if people get confused with the image size or the size of the subject in the image","nope","This trial will be in fullscreen mode."," ","","","","","","",""
"","2440","survey-text","3","2.0.0","6818","p6lubobgwfr","smaller","koala","to see if people get confused with the image size or the size of the subject in the image","nope","","{""participant_id"":""koala""}","","","","","","",""
"","16491","html-keyboard-response","4","2.0.0","23311","p6lubobgwfr","smaller","koala","to see if people get confused with the image size or the size of the subject in the image","nope","<p>In this experiment, two images will appear on the screen. Identify the <strong>smaller</strong> image.</p>
              <p>If the image on the left is smaller, press ""z"". If the image on the right is smaller, press ""m"".</p>
              <p>Press any key to begin.</p>","m","","","","","","",""
"true","","preload","5","2.0.0","23321","p6lubobgwfr","smaller","koala","to see if people get confused with the image size or the size of the subject in the image","nope","","","false","[]","[]","[]","","",""
"","null","html-keyboard-response","6","2.0.0","24330","p6lubobgwfr","smaller","koala","to see if people get confused with the image size or the size of the subject in the image","nope","<div style=""font-size:60px;"">+</div>","null","","","","","","",""
"","1207","image-keyboard-response","7","2.0.0","25538","p6lubobgwfr","smaller","koala","to see if people get confused with the image size or the size of the subject in the image","nope","stimuli/18-Inongruent.jpg","z","","","","","left","z","true"
"","null","html-keyboard-response","8","2.0.0","26448","p6lubobgwfr","smaller","koala","to see if people get confused with the image size or the size of the subject in the image","nope","<p>Correct!</p>","null","","","","","","",""
"","null","html-keyboard-response","9","2.0.0","27461","p6lubobgwfr","smaller","koala","to see if people get confused with the image size or the size of the subject in the image","nope","<div style=""font-size:60px;"">+</div>","null","","","","","","",""
"","996","image-keyboard-response","10","2.0.0","28460","p6lubobgwfr","smaller","koala","to see if people get confused with the image size or the size of the subject in the image","nope","stimuli/17-Inongruent.jpg","z","","","","","left","z","true"
"","null","html-keyboard-response","11","2.0.0","29376","p6lubobgwfr","smaller","koala","to see if people get confused with the image size or the size of the subject in the image","nope","<p>Correct!</p>","null","","","","","","",""
"","null","html-keyboard-response","12","2.0.0","30388","p6lubobgwfr","smaller","koala","to see if people get confused with the image size or the size of the subject in the image","nope","<div style=""font-size:60px;"">+</div>","null","","","","","","",""
"","730","image-keyboard-response","13","2.0.0","31120","p6lubobgwfr","smaller","koala","to see if people get confused with the image size or the size of the subject in the image","nope","stimuli/5-Congruent.jpg","m","","","","","right","m","true"
"","null","html-keyboard-response","14","2.0.0","32024","p6lubobgwfr","smaller","koala","to see if people get confused with the image size or the size of the subject in the image","nope","<p>Correct!</p>","null","","","","","","",""
"","null","html-keyboard-response","15","2.0.0","33036","p6lubobgwfr","smaller","koala","to see if people get confused with the image size or the size of the subject in the image","nope","<div style=""font-size:60px;"">+</div>","null","","","","","","",""
"","615","image-keyboard-response","16","2.0.0","33653","p6lubobgwfr","smaller","koala","to see if people get confused with the image size or the size of the subject in the image","nope","stimuli/10-Inongruent.jpg","z","","","","","left","z","true"
"","null","html-keyboard-response","17","2.0.0","34557","p6lubobgwfr","smaller","koala","to see if people get confused with the image size or the size of the subject in the image","nope","<p>Correct!</p>","null","","","","","","",""
"","null","html-keyboard-response","18","2.0.0","35568","p6lubobgwfr","smaller","koala","to see if people get confused with the image size or the size of the subject in the image","nope","<div style=""font-size:60px;"">+</div>","null","","","","","","",""
"","456","image-keyboard-response","19","2.0.0","36027","p6lubobgwfr","smaller","koala","to see if people get confused with the image size or the size of the subject in the image","nope","stimuli/36-Congruent.jpg","m","","","","","right","m","true"
"","null","html-keyboard-response","20","2.0.0","36941","p6lubobgwfr","smaller","koala","to see if people get confused with the image size or the size of the subject in the image","nope","<p>Correct!</p>","null","","","","","","",""
"","null","html-keyboard-response","21","2.0.0","37952","p6lubobgwfr","smaller","koala","to see if people get confused with the image size or the size of the subject in the image","nope","<div style=""font-size:60px;"">+</div>","null","","","","","","",""
"","506","image-keyboard-response","22","2.0.0","38460","p6lubobgwfr","smaller","koala","to see if people get confused with the image size or the size of the subject in the image","nope","stimuli/10-Congruent.jpg","m","","","","","right","m","true"
"","null","html-keyboard-response","23","2.0.0","39363","p6lubobgwfr","smaller","koala","to see if people get confused with the image size or the size of the subject in the image","nope","<p>Correct!</p>","null","","","","","","",""
"","null","html-keyboard-response","24","2.0.0","40369","p6lubobgwfr","smaller","koala","to see if people get confused with the image size or the size of the subject in the image","nope","<div style=""font-size:60px;"">+</div>","null","","","","","","",""
"","433","image-keyboard-response","25","2.0.0","40804","p6lubobgwfr","smaller","koala","to see if people get confused with the image size or the size of the subject in the image","nope","stimuli/1-Inongruent.jpg","z","","","","","left","z","true"
"","null","html-keyboard-response","26","2.0.0","41717","p6lubobgwfr","smaller","koala","to see if people get confused with the image size or the size of the subject in the image","nope","<p>Correct!</p>","null","","","","","","",""
"","null","html-keyboard-response","27","2.0.0","42729","p6lubobgwfr","smaller","koala","to see if people get confused with the image size or the size of the subject in the image","nope","<div style=""font-size:60px;"">+</div>","null","","","","","","",""
"","367","image-keyboard-response","28","2.0.0","43097","p6lubobgwfr","smaller","koala","to see if people get confused with the image size or the size of the subject in the image","nope","stimuli/2-Inongruent.jpg","z","","","","","left","z","true"
"","null","html-keyboard-response","29","2.0.0","44005","p6lubobgwfr","smaller","koala","to see if people get confused with the image size or the size of the subject in the image","nope","<p>Correct!</p>","null","","","","","","",""
"","null","html-keyboard-response","30","2.0.0","45011","p6lubobgwfr","smaller","koala","to see if people get confused with the image size or the size of the subject in the image","nope","<div style=""font-size:60px;"">+</div>","null","","","","","","",""
"","385","image-keyboard-response","31","2.0.0","45400","p6lubobgwfr","smaller","koala","to see if people get confused with the image size or the size of the subject in the image","nope","stimuli/7-Congruent.jpg","m","","","","","right","m","true"
"","null","html-keyboard-response","32","2.0.0","46302","p6lubobgwfr","smaller","koala","to see if people get confused with the image size or the size of the subject in the image","nope","<p>Correct!</p>","null","","","","","","",""
"","null","html-keyboard-response","33","2.0.0","47314","p6lubobgwfr","smaller","koala","to see if people get confused with the image size or the size of the subject in the image","nope","<div style=""font-size:60px;"">+</div>","null","","","","","","",""
"","522","image-keyboard-response","34","2.0.0","47837","p6lubobgwfr","smaller","koala","to see if people get confused with the image size or the size of the subject in the image","nope","stimuli/28-Inongruent.jpg","z","","","","","left","z","true"
"","null","html-keyboard-response","35","2.0.0","48742","p6lubobgwfr","smaller","koala","to see if people get confused with the image size or the size of the subject in the image","nope","<p>Correct!</p>","null","","","","","","",""
"","null","html-keyboard-response","36","2.0.0","49754","p6lubobgwfr","smaller","koala","to see if people get confused with the image size or the size of the subject in the image","nope","<div style=""font-size:60px;"">+</div>","null","","","","","","",""
"","885","image-keyboard-response","37","2.0.0","50640","p6lubobgwfr","smaller","koala","to see if people get confused with the image size or the size of the subject in the image","nope","stimuli/22-Inongruent.jpg","z","","","","","left","z","true"
"","null","html-keyboard-response","38","2.0.0","51557","p6lubobgwfr","smaller","koala","to see if people get confused with the image size or the size of the subject in the image","nope","<p>Correct!</p>","null","","","","","","",""
"","null","html-keyboard-response","39","2.0.0","52567","p6lubobgwfr","smaller","koala","to see if people get confused with the image size or the size of the subject in the image","nope","<div style=""font-size:60px;"">+</div>","null","","","","","","",""
"","521","image-keyboard-response","40","2.0.0","53089","p6lubobgwfr","smaller","koala","to see if people get confused with the image size or the size of the subject in the image","nope","stimuli/18-Congruent.jpg","m","","","","","right","m","true"
"","null","html-keyboard-response","41","2.0.0","54005","p6lubobgwfr","smaller","koala","to see if people get confused with the image size or the size of the subject in the image","nope","<p>Correct!</p>","null","","","","","","",""
"","null","html-keyboard-response","42","2.0.0","55014","p6lubobgwfr","smaller","koala","to see if people get confused with the image size or the size of the subject in the image","nope","<div style=""font-size:60px;"">+</div>","null","","","","","","",""
"","600","image-keyboard-response","43","2.0.0","55615","p6lubobgwfr","smaller","koala","to see if people get confused with the image size or the size of the subject in the image","nope","stimuli/19-Congruent.jpg","m","","","","","right","m","true"
"","null","html-keyboard-response","44","2.0.0","56530","p6lubobgwfr","smaller","koala","to see if people get confused with the image size or the size of the subject in the image","nope","<p>Correct!</p>","null","","","","","","",""
"","null","html-keyboard-response","45","2.0.0","57542","p6lubobgwfr","smaller","koala","to see if people get confused with the image size or the size of the subject in the image","nope","<div style=""font-size:60px;"">+</div>","null","","","","","","",""
"","485","image-keyboard-response","46","2.0.0","58028","p6lubobgwfr","smaller","koala","to see if people get confused with the image size or the size of the subject in the image","nope","stimuli/23-Inongruent.jpg","z","","","","","left","z","true"
"","null","html-keyboard-response","47","2.0.0","58942","p6lubobgwfr","smaller","koala","to see if people get confused with the image size or the size of the subject in the image","nope","<p>Correct!</p>","null","","","","","","",""
"","null","html-keyboard-response","48","2.0.0","59951","p6lubobgwfr","smaller","koala","to see if people get confused with the image size or the size of the subject in the image","nope","<div style=""font-size:60px;"">+</div>","null","","","","","","",""
"","556","image-keyboard-response","49","2.0.0","60509","p6lubobgwfr","smaller","koala","to see if people get confused with the image size or the size of the subject in the image","nope","stimuli/4-Congruent.jpg","m","","","","","right","m","true"
"","null","html-keyboard-response","50","2.0.0","61413","p6lubobgwfr","smaller","koala","to see if people get confused with the image size or the size of the subject in the image","nope","<p>Correct!</p>","null","","","","","","",""
"","null","html-keyboard-response","51","2.0.0","62422","p6lubobgwfr","smaller","koala","to see if people get confused with the image size or the size of the subject in the image","nope","<div style=""font-size:60px;"">+</div>","null","","","","","","",""
"","420","image-keyboard-response","52","2.0.0","62844","p6lubobgwfr","smaller","koala","to see if people get confused with the image size or the size of the subject in the image","nope","stimuli/34-Inongruent.jpg","z","","","","","left","z","true"
"","null","html-keyboard-response","53","2.0.0","63759","p6lubobgwfr","smaller","koala","to see if people get confused with the image size or the size of the subject in the image","nope","<p>Correct!</p>","null","","","","","","",""
"","null","html-keyboard-response","54","2.0.0","64770","p6lubobgwfr","smaller","koala","to see if people get confused with the image size or the size of the subject in the image","nope","<div style=""font-size:60px;"">+</div>","null","","","","","","",""
"","526","image-keyboard-response","55","2.0.0","65297","p6lubobgwfr","smaller","koala","to see if people get confused with the image size or the size of the subject in the image","nope","stimuli/21-Inongruent.jpg","z","","","","","left","z","true"
"","null","html-keyboard-response","56","2.0.0","66213","p6lubobgwfr","smaller","koala","to see if people get confused with the image size or the size of the subject in the image","nope","<p>Correct!</p>","null","","","","","","",""
"","null","html-keyboard-response","57","2.0.0","67225","p6lubobgwfr","smaller","koala","to see if people get confused with the image size or the size of the subject in the image","nope","<div style=""font-size:60px;"">+</div>","null","","","","","","",""
"","474","image-keyboard-response","58","2.0.0","67701","p6lubobgwfr","smaller","koala","to see if people get confused with the image size or the size of the subject in the image","nope","stimuli/16-Congruent.jpg","m","","","","","right","m","true"
"","null","html-keyboard-response","59","2.0.0","68613","p6lubobgwfr","smaller","koala","to see if people get confused with the image size or the size of the subject in the image","nope","<p>Correct!</p>","null","","","","","","",""
"","null","html-keyboard-response","60","2.0.0","69622","p6lubobgwfr","smaller","koala","to see if people get confused with the image size or the size of the subject in the image","nope","<div style=""font-size:60px;"">+</div>","null","","","","","","",""
"","433","image-keyboard-response","61","2.0.0","70057","p6lubobgwfr","smaller","koala","to see if people get confused with the image size or the size of the subject in the image","nope","stimuli/22-Inongruent.jpg","z","","","","","left","z","true"
"","null","html-keyboard-response","62","2.0.0","70961","p6lubobgwfr","smaller","koala","to see if people get confused with the image size or the size of the subject in the image","nope","<p>Correct!</p>","null","","","","","","",""
"","null","html-keyboard-response","63","2.0.0","71970","p6lubobgwfr","smaller","koala","to see if people get confused with the image size or the size of the subject in the image","nope","<div style=""font-size:60px;"">+</div>","null","","","","","","",""
"","549","image-keyboard-response","64","2.0.0","72521","p6lubobgwfr","smaller","koala","to see if people get confused with the image size or the size of the subject in the image","nope","stimuli/8-Congruent.jpg","m","","","","","right","m","true"
"","null","html-keyboard-response","65","2.0.0","73431","p6lubobgwfr","smaller","koala","to see if people get confused with the image size or the size of the subject in the image","nope","<p>Correct!</p>","null","","","","","","",""
"","null","html-keyboard-response","66","2.0.0","74440","p6lubobgwfr","smaller","koala","to see if people get confused with the image size or the size of the subject in the image","nope","<div style=""font-size:60px;"">+</div>","null","","","","","","",""
"","501","image-keyboard-response","67","2.0.0","74943","p6lubobgwfr","smaller","koala","to see if people get confused with the image size or the size of the subject in the image","nope","stimuli/13-Congruent.jpg","m","","","","","right","m","true"
"","null","html-keyboard-response","68","2.0.0","75858","p6lubobgwfr","smaller","koala","to see if people get confused with the image size or the size of the subject in the image","nope","<p>Correct!</p>","null","","","","","","",""
"","null","html-keyboard-response","69","2.0.0","76869","p6lubobgwfr","smaller","koala","to see if people get confused with the image size or the size of the subject in the image","nope","<div style=""font-size:60px;"">+</div>","null","","","","","","",""
"","453","image-keyboard-response","70","2.0.0","77324","p6lubobgwfr","smaller","koala","to see if people get confused with the image size or the size of the subject in the image","nope","stimuli/11-Congruent.jpg","m","","","","","right","m","true"
"","null","html-keyboard-response","71","2.0.0","78240","p6lubobgwfr","smaller","koala","to see if people get confused with the image size or the size of the subject in the image","nope","<p>Correct!</p>","null","","","","","","",""
"","null","html-keyboard-response","72","2.0.0","79243","p6lubobgwfr","smaller","koala","to see if people get confused with the image size or the size of the subject in the image","nope","<div style=""font-size:60px;"">+</div>","null","","","","","","",""
"","636","image-keyboard-response","73","2.0.0","79881","p6lubobgwfr","smaller","koala","to see if people get confused with the image size or the size of the subject in the image","nope","stimuli/5-Inongruent.jpg","z","","","","","left","z","true"
"","null","html-keyboard-response","74","2.0.0","80797","p6lubobgwfr","smaller","koala","to see if people get confused with the image size or the size of the subject in the image","nope","<p>Correct!</p>","null","","","","","","",""
"","null","html-keyboard-response","75","2.0.0","81804","p6lubobgwfr","smaller","koala","to see if people get confused with the image size or the size of the subject in the image","nope","<div style=""font-size:60px;"">+</div>","null","","","","","","",""
"","778","image-keyboard-response","76","2.0.0","82584","p6lubobgwfr","smaller","koala","to see if people get confused with the image size or the size of the subject in the image","nope","stimuli/15-Inongruent.jpg","z","","","","","left","z","true"
"","null","html-keyboard-response","77","2.0.0","83495","p6lubobgwfr","smaller","koala","to see if people get confused with the image size or the size of the subject in the image","nope","<p>Correct!</p>","null","","","","","","",""
"","null","html-keyboard-response","78","2.0.0","84501","p6lubobgwfr","smaller","koala","to see if people get confused with the image size or the size of the subject in the image","nope","<div style=""font-size:60px;"">+</div>","null","","","","","","",""
"","839","image-keyboard-response","79","2.0.0","85342","p6lubobgwfr","smaller","koala","to see if people get confused with the image size or the size of the subject in the image","nope","stimuli/29-Inongruent.jpg","z","","","","","left","z","true"
"","null","html-keyboard-response","80","2.0.0","86246","p6lubobgwfr","smaller","koala","to see if people get confused with the image size or the size of the subject in the image","nope","<p>Correct!</p>","null","","","","","","",""
"","null","html-keyboard-response","81","2.0.0","87256","p6lubobgwfr","smaller","koala","to see if people get confused with the image size or the size of the subject in the image","nope","<div style=""font-size:60px;"">+</div>","null","","","","","","",""
"","564","image-keyboard-response","82","2.0.0","87823","p6lubobgwfr","smaller","koala","to see if people get confused with the image size or the size of the subject in the image","nope","stimuli/25-Inongruent.jpg","z","","","","","left","z","true"
"","null","html-keyboard-response","83","2.0.0","88731","p6lubobgwfr","smaller","koala","to see if people get confused with the image size or the size of the subject in the image","nope","<p>Correct!</p>","null","","","","","","",""
"","null","html-keyboard-response","84","2.0.0","89743","p6lubobgwfr","smaller","koala","to see if people get confused with the image size or the size of the subject in the image","nope","<div style=""font-size:60px;"">+</div>","null","","","","","","",""
"","652","image-keyboard-response","85","2.0.0","90397","p6lubobgwfr","smaller","koala","to see if people get confused with the image size or the size of the subject in the image","nope","stimuli/3-Inongruent.jpg","z","","","","","left","z","true"
"","null","html-keyboard-response","86","2.0.0","91313","p6lubobgwfr","smaller","koala","to see if people get confused with the image size or the size of the subject in the image","nope","<p>Correct!</p>","null","","","","","","",""
"","null","html-keyboard-response","87","2.0.0","92325","p6lubobgwfr","smaller","koala","to see if people get confused with the image size or the size of the subject in the image","nope","<div style=""font-size:60px;"">+</div>","null","","","","","","",""
"","502","image-keyboard-response","88","2.0.0","92829","p6lubobgwfr","smaller","koala","to see if people get confused with the image size or the size of the subject in the image","nope","stimuli/23-Congruent.jpg","m","","","","","right","m","true"
"","null","html-keyboard-response","89","2.0.0","93738","p6lubobgwfr","smaller","koala","to see if people get confused with the image size or the size of the subject in the image","nope","<p>Correct!</p>","null","","","","","","",""
"","null","html-keyboard-response","90","2.0.0","94750","p6lubobgwfr","smaller","koala","to see if people get confused with the image size or the size of the subject in the image","nope","<div style=""font-size:60px;"">+</div>","null","","","","","","",""
"","430","image-keyboard-response","91","2.0.0","95182","p6lubobgwfr","smaller","koala","to see if people get confused with the image size or the size of the subject in the image","nope","stimuli/26-Congruent.jpg","m","","","","","right","m","true"
"","null","html-keyboard-response","92","2.0.0","96089","p6lubobgwfr","smaller","koala","to see if people get confused with the image size or the size of the subject in the image","nope","<p>Correct!</p>","null","","","","","","",""
"","null","html-keyboard-response","93","2.0.0","97102","p6lubobgwfr","smaller","koala","to see if people get confused with the image size or the size of the subject in the image","nope","<div style=""font-size:60px;"">+</div>","null","","","","","","",""
"","489","image-keyboard-response","94","2.0.0","97595","p6lubobgwfr","smaller","koala","to see if people get confused with the image size or the size of the subject in the image","nope","stimuli/15-Congruent.jpg","m","","","","","right","m","true"
"","null","html-keyboard-response","95","2.0.0","98501","p6lubobgwfr","smaller","koala","to see if people get confused with the image size or the size of the subject in the image","nope","<p>Correct!</p>","null","","","","","","",""
"","null","html-keyboard-response","96","2.0.0","99513","p6lubobgwfr","smaller","koala","to see if people get confused with the image size or the size of the subject in the image","nope","<div style=""font-size:60px;"">+</div>","null","","","","","","",""
"","408","image-keyboard-response","97","2.0.0","99923","p6lubobgwfr","smaller","koala","to see if people get confused with the image size or the size of the subject in the image","nope","stimuli/34-Congruent.jpg","m","","","","","right","m","true"
"","null","html-keyboard-response","98","2.0.0","100835","p6lubobgwfr","smaller","koala","to see if people get confused with the image size or the size of the subject in the image","nope","<p>Correct!</p>","null","","","","","","",""
"","null","html-keyboard-response","99","2.0.0","101850","p6lubobgwfr","smaller","koala","to see if people get confused with the image size or the size of the subject in the image","nope","<div style=""font-size:60px;"">+</div>","null","","","","","","",""
"","419","image-keyboard-response","100","2.0.0","102270","p6lubobgwfr","smaller","koala","to see if people get confused with the image size or the size of the subject in the image","nope","stimuli/9-Congruent.jpg","m","","","","","right","m","true"
"","null","html-keyboard-response","101","2.0.0","103185","p6lubobgwfr","smaller","koala","to see if people get confused with the image size or the size of the subject in the image","nope","<p>Correct!</p>","null","","","","","","",""
"","null","html-keyboard-response","102","2.0.0","104199","p6lubobgwfr","smaller","koala","to see if people get confused with the image size or the size of the subject in the image","nope","<div style=""font-size:60px;"">+</div>","null","","","","","","",""
"","433","image-keyboard-response","103","2.0.0","104634","p6lubobgwfr","smaller","koala","to see if people get confused with the image size or the size of the subject in the image","nope","stimuli/22-Congruent.jpg","m","","","","","right","m","true"
"","null","html-keyboard-response","104","2.0.0","105537","p6lubobgwfr","smaller","koala","to see if people get confused with the image size or the size of the subject in the image","nope","<p>Correct!</p>","null","","","","","","",""
"","null","html-keyboard-response","105","2.0.0","106539","p6lubobgwfr","smaller","koala","to see if people get confused with the image size or the size of the subject in the image","nope","<div style=""font-size:60px;"">+</div>","null","","","","","","",""
"","669","image-keyboard-response","106","2.0.0","107209","p6lubobgwfr","smaller","koala","to see if people get confused with the image size or the size of the subject in the image","nope","stimuli/31-Inongruent.jpg","z","","","","","left","z","true"
"","null","html-keyboard-response","107","2.0.0","108112","p6lubobgwfr","smaller","koala","to see if people get confused with the image size or the size of the subject in the image","nope","<p>Correct!</p>","null","","","","","","",""
"","null","html-keyboard-response","108","2.0.0","109123","p6lubobgwfr","smaller","koala","to see if people get confused with the image size or the size of the subject in the image","nope","<div style=""font-size:60px;"">+</div>","null","","","","","","",""
"","587","image-keyboard-response","109","2.0.0","109712","p6lubobgwfr","smaller","koala","to see if people get confused with the image size or the size of the subject in the image","nope","stimuli/30-Inongruent.jpg","m","","","","","left","z","false"
"","null","html-keyboard-response","110","2.0.0","114726","p6lubobgwfr","smaller","koala","to see if people get confused with the image size or the size of the subject in the image","nope","<p>Incorrect.</p><p>Remember to select the <b>smaller</b> image.</p><p>Continuing in 5 seconds...</p>","null","","","","","","",""
"","null","html-keyboard-response","111","2.0.0","115740","p6lubobgwfr","smaller","koala","to see if people get confused with the image size or the size of the subject in the image","nope","<div style=""font-size:60px;"">+</div>","null","","","","","","",""
"","570","image-keyboard-response","112","2.0.0","116312","p6lubobgwfr","smaller","koala","to see if people get confused with the image size or the size of the subject in the image","nope","stimuli/25-Congruent.jpg","m","","","","","right","m","true"
"","null","html-keyboard-response","113","2.0.0","117215","p6lubobgwfr","smaller","koala","to see if people get confused with the image size or the size of the subject in the image","nope","<p>Correct!</p>","null","","","","","","",""
"","null","html-keyboard-response","114","2.0.0","118227","p6lubobgwfr","smaller","koala","to see if people get confused with the image size or the size of the subject in the image","nope","<div style=""font-size:60px;"">+</div>","null","","","","","","",""
"","415","image-keyboard-response","115","2.0.0","118644","p6lubobgwfr","smaller","koala","to see if people get confused with the image size or the size of the subject in the image","nope","stimuli/1-Congruent.jpg","m","","","","","right","m","true"
"","null","html-keyboard-response","116","2.0.0","119559","p6lubobgwfr","smaller","koala","to see if people get confused with the image size or the size of the subject in the image","nope","<p>Correct!</p>","null","","","","","","",""
"","null","html-keyboard-response","117","2.0.0","120567","p6lubobgwfr","smaller","koala","to see if people get confused with the image size or the size of the subject in the image","nope","<div style=""font-size:60px;"">+</div>","null","","","","","","",""
"","564","image-keyboard-response","118","2.0.0","121133","p6lubobgwfr","smaller","koala","to see if people get confused with the image size or the size of the subject in the image","nope","stimuli/17-Inongruent.jpg","z","","","","","left","z","true"
"","null","html-keyboard-response","119","2.0.0","122050","p6lubobgwfr","smaller","koala","to see if people get confused with the image size or the size of the subject in the image","nope","<p>Correct!</p>","null","","","","","","",""
"","null","html-keyboard-response","120","2.0.0","123059","p6lubobgwfr","smaller","koala","to see if people get confused with the image size or the size of the subject in the image","nope","<div style=""font-size:60px;"">+</div>","null","","","","","","",""
"","783","image-keyboard-response","121","2.0.0","123844","p6lubobgwfr","smaller","koala","to see if people get confused with the image size or the size of the subject in the image","nope","stimuli/32-Inongruent.jpg","z","","","","","left","z","true"
"","null","html-keyboard-response","122","2.0.0","124753","p6lubobgwfr","smaller","koala","to see if people get confused with the image size or the size of the subject in the image","nope","<p>Correct!</p>","null","","","","","","",""
"","null","html-keyboard-response","123","2.0.0","125768","p6lubobgwfr","smaller","koala","to see if people get confused with the image size or the size of the subject in the image","nope","<div style=""font-size:60px;"">+</div>","null","","","","","","",""
"","448","image-keyboard-response","124","2.0.0","126218","p6lubobgwfr","smaller","koala","to see if people get confused with the image size or the size of the subject in the image","nope","stimuli/28-Congruent.jpg","m","","","","","right","m","true"
"","null","html-keyboard-response","125","2.0.0","127132","p6lubobgwfr","smaller","koala","to see if people get confused with the image size or the size of the subject in the image","nope","<p>Correct!</p>","null","","","","","","",""
"","null","html-keyboard-response","126","2.0.0","128142","p6lubobgwfr","smaller","koala","to see if people get confused with the image size or the size of the subject in the image","nope","<div style=""font-size:60px;"">+</div>","null","","","","","","",""
"","443","image-keyboard-response","127","2.0.0","128586","p6lubobgwfr","smaller","koala","to see if people get confused with the image size or the size of the subject in the image","nope","stimuli/1-Congruent.jpg","m","","","","","right","m","true"
"","null","html-keyboard-response","128","2.0.0","129493","p6lubobgwfr","smaller","koala","to see if people get confused with the image size or the size of the subject in the image","nope","<p>Correct!</p>","null","","","","","","",""
"","null","html-keyboard-response","129","2.0.0","130506","p6lubobgwfr","smaller","koala","to see if people get confused with the image size or the size of the subject in the image","nope","<div style=""font-size:60px;"">+</div>","null","","","","","","",""
"","388","image-keyboard-response","130","2.0.0","130896","p6lubobgwfr","smaller","koala","to see if people get confused with the image size or the size of the subject in the image","nope","stimuli/20-Congruent.jpg","m","","","","","right","m","true"
"","null","html-keyboard-response","131","2.0.0","131798","p6lubobgwfr","smaller","koala","to see if people get confused with the image size or the size of the subject in the image","nope","<p>Correct!</p>","null","","","","","","",""
"","null","html-keyboard-response","132","2.0.0","132807","p6lubobgwfr","smaller","koala","to see if people get confused with the image size or the size of the subject in the image","nope","<div style=""font-size:60px;"">+</div>","null","","","","","","",""
"","389","image-keyboard-response","133","2.0.0","133197","p6lubobgwfr","smaller","koala","to see if people get confused with the image size or the size of the subject in the image","nope","stimuli/17-Congruent.jpg","m","","","","","right","m","true"
"","null","html-keyboard-response","134","2.0.0","134099","p6lubobgwfr","smaller","koala","to see if people get confused with the image size or the size of the subject in the image","nope","<p>Correct!</p>","null","","","","","","",""
"","null","html-keyboard-response","135","2.0.0","135110","p6lubobgwfr","smaller","koala","to see if people get confused with the image size or the size of the subject in the image","nope","<div style=""font-size:60px;"">+</div>","null","","","","","","",""
"","442","image-keyboard-response","136","2.0.0","135555","p6lubobgwfr","smaller","koala","to see if people get confused with the image size or the size of the subject in the image","nope","stimuli/6-Inongruent.jpg","z","","","","","left","z","true"
"","null","html-keyboard-response","137","2.0.0","136460","p6lubobgwfr","smaller","koala","to see if people get confused with the image size or the size of the subject in the image","nope","<p>Correct!</p>","null","","","","","","",""
"","null","html-keyboard-response","138","2.0.0","137473","p6lubobgwfr","smaller","koala","to see if people get confused with the image size or the size of the subject in the image","nope","<div style=""font-size:60px;"">+</div>","null","","","","","","",""
"","503","image-keyboard-response","139","2.0.0","137980","p6lubobgwfr","smaller","koala","to see if people get confused with the image size or the size of the subject in the image","nope","stimuli/15-Congruent.jpg","m","","","","","right","m","true"
"","null","html-keyboard-response","140","2.0.0","138888","p6lubobgwfr","smaller","koala","to see if people get confused with the image size or the size of the subject in the image","nope","<p>Correct!</p>","null","","","","","","",""
"","null","html-keyboard-response","141","2.0.0","139898","p6lubobgwfr","smaller","koala","to see if people get confused with the image size or the size of the subject in the image","nope","<div style=""font-size:60px;"">+</div>","null","","","","","","",""
"","508","image-keyboard-response","142","2.0.0","140408","p6lubobgwfr","smaller","koala","to see if people get confused with the image size or the size of the subject in the image","nope","stimuli/19-Congruent.jpg","m","","","","","right","m","true"
"","null","html-keyboard-response","143","2.0.0","141315","p6lubobgwfr","smaller","koala","to see if people get confused with the image size or the size of the subject in the image","nope","<p>Correct!</p>","null","","","","","","",""
"","null","html-keyboard-response","144","2.0.0","142329","p6lubobgwfr","smaller","koala","to see if people get confused with the image size or the size of the subject in the image","nope","<div style=""font-size:60px;"">+</div>","null","","","","","","",""
"","413","image-keyboard-response","145","2.0.0","142745","p6lubobgwfr","smaller","koala","to see if people get confused with the image size or the size of the subject in the image","nope","stimuli/11-Inongruent.jpg","z","","","","","left","z","true"
"","null","html-keyboard-response","146","2.0.0","143651","p6lubobgwfr","smaller","koala","to see if people get confused with the image size or the size of the subject in the image","nope","<p>Correct!</p>","null","","","","","","",""
"","null","html-keyboard-response","147","2.0.0","144664","p6lubobgwfr","smaller","koala","to see if people get confused with the image size or the size of the subject in the image","nope","<div style=""font-size:60px;"">+</div>","null","","","","","","",""
"","406","image-keyboard-response","148","2.0.0","145071","p6lubobgwfr","smaller","koala","to see if people get confused with the image size or the size of the subject in the image","nope","stimuli/27-Congruent.jpg","m","","","","","right","m","true"
"","null","html-keyboard-response","149","2.0.0","145975","p6lubobgwfr","smaller","koala","to see if people get confused with the image size or the size of the subject in the image","nope","<p>Correct!</p>","null","","","","","","",""
"","null","html-keyboard-response","150","2.0.0","146987","p6lubobgwfr","smaller","koala","to see if people get confused with the image size or the size of the subject in the image","nope","<div style=""font-size:60px;"">+</div>","null","","","","","","",""
"","388","image-keyboard-response","151","2.0.0","147377","p6lubobgwfr","smaller","koala","to see if people get confused with the image size or the size of the subject in the image","nope","stimuli/32-Inongruent.jpg","z","","","","","left","z","true"
"","null","html-keyboard-response","152","2.0.0","148279","p6lubobgwfr","smaller","koala","to see if people get confused with the image size or the size of the subject in the image","nope","<p>Correct!</p>","null","","","","","","",""
"","null","html-keyboard-response","153","2.0.0","149291","p6lubobgwfr","smaller","koala","to see if people get confused with the image size or the size of the subject in the image","nope","<div style=""font-size:60px;"">+</div>","null","","","","","","",""
"","793","image-keyboard-response","154","2.0.0","150086","p6lubobgwfr","smaller","koala","to see if people get confused with the image size or the size of the subject in the image","nope","stimuli/10-Inongruent.jpg","z","","","","","left","z","true"
"","null","html-keyboard-response","155","2.0.0","150993","p6lubobgwfr","smaller","koala","to see if people get confused with the image size or the size of the subject in the image","nope","<p>Correct!</p>","null","","","","","","",""
"","null","html-keyboard-response","156","2.0.0","152008","p6lubobgwfr","smaller","koala","to see if people get confused with the image size or the size of the subject in the image","nope","<div style=""font-size:60px;"">+</div>","null","","","","","","",""
"","717","image-keyboard-response","157","2.0.0","152728","p6lubobgwfr","smaller","koala","to see if people get confused with the image size or the size of the subject in the image","nope","stimuli/36-Inongruent.jpg","z","","","","","left","z","true"
"","null","html-keyboard-response","158","2.0.0","153637","p6lubobgwfr","smaller","koala","to see if people get confused with the image size or the size of the subject in the image","nope","<p>Correct!</p>","null","","","","","","",""
"","null","html-keyboard-response","159","2.0.0","154647","p6lubobgwfr","smaller","koala","to see if people get confused with the image size or the size of the subject in the image","nope","<div style=""font-size:60px;"">+</div>","null","","","","","","",""
"","572","image-keyboard-response","160","2.0.0","155220","p6lubobgwfr","smaller","koala","to see if people get confused with the image size or the size of the subject in the image","nope","stimuli/14-Congruent.jpg","m","","","","","right","m","true"
"","null","html-keyboard-response","161","2.0.0","156125","p6lubobgwfr","smaller","koala","to see if people get confused with the image size or the size of the subject in the image","nope","<p>Correct!</p>","null","","","","","","",""
"","null","html-keyboard-response","162","2.0.0","157135","p6lubobgwfr","smaller","koala","to see if people get confused with the image size or the size of the subject in the image","nope","<div style=""font-size:60px;"">+</div>","null","","","","","","",""
"","488","image-keyboard-response","163","2.0.0","157625","p6lubobgwfr","smaller","koala","to see if people get confused with the image size or the size of the subject in the image","nope","stimuli/16-Congruent.jpg","m","","","","","right","m","true"
"","null","html-keyboard-response","164","2.0.0","158540","p6lubobgwfr","smaller","koala","to see if people get confused with the image size or the size of the subject in the image","nope","<p>Correct!</p>","null","","","","","","",""
"","null","html-keyboard-response","165","2.0.0","159551","p6lubobgwfr","smaller","koala","to see if people get confused with the image size or the size of the subject in the image","nope","<div style=""font-size:60px;"">+</div>","null","","","","","","",""
"","399","image-keyboard-response","166","2.0.0","159952","p6lubobgwfr","smaller","koala","to see if people get confused with the image size or the size of the subject in the image","nope","stimuli/19-Inongruent.jpg","z","","","","","left","z","true"
"","null","html-keyboard-response","167","2.0.0","160869","p6lubobgwfr","smaller","koala","to see if people get confused with the image size or the size of the subject in the image","nope","<p>Correct!</p>","null","","","","","","",""
"","null","html-keyboard-response","168","2.0.0","161878","p6lubobgwfr","smaller","koala","to see if people get confused with the image size or the size of the subject in the image","nope","<div style=""font-size:60px;"">+</div>","null","","","","","","",""
"","428","image-keyboard-response","169","2.0.0","162308","p6lubobgwfr","smaller","koala","to see if people get confused with the image size or the size of the subject in the image","nope","stimuli/22-Congruent.jpg","m","","","","","right","m","true"
"","null","html-keyboard-response","170","2.0.0","163220","p6lubobgwfr","smaller","koala","to see if people get confused with the image size or the size of the subject in the image","nope","<p>Correct!</p>","null","","","","","","",""
"","null","html-keyboard-response","171","2.0.0","164229","p6lubobgwfr","smaller","koala","to see if people get confused with the image size or the size of the subject in the image","nope","<div style=""font-size:60px;"">+</div>","null","","","","","","",""
"","418","image-keyboard-response","172","2.0.0","164649","p6lubobgwfr","smaller","koala","to see if people get confused with the image size or the size of the subject in the image","nope","stimuli/2-Inongruent.jpg","z","","","","","left","z","true"
"","null","html-keyboard-response","173","2.0.0","165553","p6lubobgwfr","smaller","koala","to see if people get confused with the image size or the size of the subject in the image","nope","<p>Correct!</p>","null","","","","","","",""
"","null","html-keyboard-response","174","2.0.0","166564","p6lubobgwfr","smaller","koala","to see if people get confused with the image size or the size of the subject in the image","nope","<div style=""font-size:60px;"">+</div>","null","","","","","","",""
"","382","image-keyboard-response","175","2.0.0","166948","p6lubobgwfr","smaller","koala","to see if people get confused with the image size or the size of the subject in the image","nope","stimuli/12-Congruent.jpg","m","","","","","right","m","true"
"","null","html-keyboard-response","176","2.0.0","167855","p6lubobgwfr","smaller","koala","to see if people get confused with the image size or the size of the subject in the image","nope","<p>Correct!</p>","null","","","","","","",""
"","null","html-keyboard-response","177","2.0.0","168867","p6lubobgwfr","smaller","koala","to see if people get confused with the image size or the size of the subject in the image","nope","<div style=""font-size:60px;"">+</div>","null","","","","","","",""
"","375","image-keyboard-response","178","2.0.0","169244","p6lubobgwfr","smaller","koala","to see if people get confused with the image size or the size of the subject in the image","nope","stimuli/33-Inongruent.jpg","z","","","","","left","z","true"
"","null","html-keyboard-response","179","2.0.0","170158","p6lubobgwfr","smaller","koala","to see if people get confused with the image size or the size of the subject in the image","nope","<p>Correct!</p>","null","","","","","","",""
"","null","html-keyboard-response","180","2.0.0","171168","p6lubobgwfr","smaller","koala","to see if people get confused with the image size or the size of the subject in the image","nope","<div style=""font-size:60px;"">+</div>","null","","","","","","",""
"","416","image-keyboard-response","181","2.0.0","171585","p6lubobgwfr","smaller","koala","to see if people get confused with the image size or the size of the subject in the image","nope","stimuli/30-Congruent.jpg","m","","","","","right","m","true"
"","null","html-keyboard-response","182","2.0.0","172495","p6lubobgwfr","smaller","koala","to see if people get confused with the image size or the size of the subject in the image","nope","<p>Correct!</p>","null","","","","","","",""
"","null","html-keyboard-response","183","2.0.0","173507","p6lubobgwfr","smaller","koala","to see if people get confused with the image size or the size of the subject in the image","nope","<div style=""font-size:60px;"">+</div>","null","","","","","","",""
"","471","image-keyboard-response","184","2.0.0","173981","p6lubobgwfr","smaller","koala","to see if people get confused with the image size or the size of the subject in the image","nope","stimuli/33-Inongruent.jpg","z","","","","","left","z","true"
"","null","html-keyboard-response","185","2.0.0","174890","p6lubobgwfr","smaller","koala","to see if people get confused with the image size or the size of the subject in the image","nope","<p>Correct!</p>","null","","","","","","",""
"","null","html-keyboard-response","186","2.0.0","175902","p6lubobgwfr","smaller","koala","to see if people get confused with the image size or the size of the subject in the image","nope","<div style=""font-size:60px;"">+</div>","null","","","","","","",""
"","626","image-keyboard-response","187","2.0.0","176531","p6lubobgwfr","smaller","koala","to see if people get confused with the image size or the size of the subject in the image","nope","stimuli/9-Inongruent.jpg","z","","","","","left","z","true"
"","null","html-keyboard-response","188","2.0.0","177438","p6lubobgwfr","smaller","koala","to see if people get confused with the image size or the size of the subject in the image","nope","<p>Correct!</p>","null","","","","","","",""
"","null","html-keyboard-response","189","2.0.0","178449","p6lubobgwfr","smaller","koala","to see if people get confused with the image size or the size of the subject in the image","nope","<div style=""font-size:60px;"">+</div>","null","","","","","","",""
"","454","image-keyboard-response","190","2.0.0","178905","p6lubobgwfr","smaller","koala","to see if people get confused with the image size or the size of the subject in the image","nope","stimuli/2-Congruent.jpg","m","","","","","right","m","true"
"","null","html-keyboard-response","191","2.0.0","179819","p6lubobgwfr","smaller","koala","to see if people get confused with the image size or the size of the subject in the image","nope","<p>Correct!</p>","null","","","","","","",""
"","null","html-keyboard-response","192","2.0.0","180827","p6lubobgwfr","smaller","koala","to see if people get confused with the image size or the size of the subject in the image","nope","<div style=""font-size:60px;"">+</div>","null","","","","","","",""
"","455","image-keyboard-response","193","2.0.0","181284","p6lubobgwfr","smaller","koala","to see if people get confused with the image size or the size of the subject in the image","nope","stimuli/9-Inongruent.jpg","z","","","","","left","z","true"
"","null","html-keyboard-response","194","2.0.0","182189","p6lubobgwfr","smaller","koala","to see if people get confused with the image size or the size of the subject in the image","nope","<p>Correct!</p>","null","","","","","","",""
"","null","html-keyboard-response","195","2.0.0","183196","p6lubobgwfr","smaller","koala","to see if people get confused with the image size or the size of the subject in the image","nope","<div style=""font-size:60px;"">+</div>","null","","","","","","",""
"","396","image-keyboard-response","196","2.0.0","183593","p6lubobgwfr","smaller","koala","to see if people get confused with the image size or the size of the subject in the image","nope","stimuli/7-Congruent.jpg","m","","","","","right","m","true"
"","null","html-keyboard-response","197","2.0.0","184504","p6lubobgwfr","smaller","koala","to see if people get confused with the image size or the size of the subject in the image","nope","<p>Correct!</p>","null","","","","","","",""
"","null","html-keyboard-response","198","2.0.0","185514","p6lubobgwfr","smaller","koala","to see if people get confused with the image size or the size of the subject in the image","nope","<div style=""font-size:60px;"">+</div>","null","","","","","","",""
"","389","image-keyboard-response","199","2.0.0","185908","p6lubobgwfr","smaller","koala","to see if people get confused with the image size or the size of the subject in the image","nope","stimuli/13-Inongruent.jpg","z","","","","","left","z","true"
"","null","html-keyboard-response","200","2.0.0","186823","p6lubobgwfr","smaller","koala","to see if people get confused with the image size or the size of the subject in the image","nope","<p>Correct!</p>","null","","","","","","",""
"","null","html-keyboard-response","201","2.0.0","187838","p6lubobgwfr","smaller","koala","to see if people get confused with the image size or the size of the subject in the image","nope","<div style=""font-size:60px;"">+</div>","null","","","","","","",""
"","396","image-keyboard-response","202","2.0.0","188235","p6lubobgwfr","smaller","koala","to see if people get confused with the image size or the size of the subject in the image","nope","stimuli/21-Congruent.jpg","m","","","","","right","m","true"
"","null","html-keyboard-response","203","2.0.0","189141","p6lubobgwfr","smaller","koala","to see if people get confused with the image size or the size of the subject in the image","nope","<p>Correct!</p>","null","","","","","","",""
"","null","html-keyboard-response","204","2.0.0","190154","p6lubobgwfr","smaller","koala","to see if people get confused with the image size or the size of the subject in the image","nope","<div style=""font-size:60px;"">+</div>","null","","","","","","",""
"","561","image-keyboard-response","205","2.0.0","190717","p6lubobgwfr","smaller","koala","to see if people get confused with the image size or the size of the subject in the image","nope","stimuli/15-Inongruent.jpg","z","","","","","left","z","true"
"","null","html-keyboard-response","206","2.0.0","191632","p6lubobgwfr","smaller","koala","to see if people get confused with the image size or the size of the subject in the image","nope","<p>Correct!</p>","null","","","","","","",""
"","null","html-keyboard-response","207","2.0.0","192640","p6lubobgwfr","smaller","koala","to see if people get confused with the image size or the size of the subject in the image","nope","<div style=""font-size:60px;"">+</div>","null","","","","","","",""
"","348","image-keyboard-response","208","2.0.0","192990","p6lubobgwfr","smaller","koala","to see if people get confused with the image size or the size of the subject in the image","nope","stimuli/25-Congruent.jpg","m","","","","","right","m","true"
"","null","html-keyboard-response","209","2.0.0","193896","p6lubobgwfr","smaller","koala","to see if people get confused with the image size or the size of the subject in the image","nope","<p>Correct!</p>","null","","","","","","",""
"","null","html-keyboard-response","210","2.0.0","194907","p6lubobgwfr","smaller","koala","to see if people get confused with the image size or the size of the subject in the image","nope","<div style=""font-size:60px;"">+</div>","null","","","","","","",""
"","512","image-keyboard-response","211","2.0.0","195422","p6lubobgwfr","smaller","koala","to see if people get confused with the image size or the size of the subject in the image","nope","stimuli/13-Congruent.jpg","m","","","","","right","m","true"
"","null","html-keyboard-response","212","2.0.0","196338","p6lubobgwfr","smaller","koala","to see if people get confused with the image size or the size of the subject in the image","nope","<p>Correct!</p>","null","","","","","","",""
"","null","html-keyboard-response","213","2.0.0","197349","p6lubobgwfr","smaller","koala","to see if people get confused with the image size or the size of the subject in the image","nope","<div style=""font-size:60px;"">+</div>","null","","","","","","",""
"","711","image-keyboard-response","214","2.0.0","198062","p6lubobgwfr","smaller","koala","to see if people get confused with the image size or the size of the subject in the image","nope","stimuli/7-Inongruent.jpg","z","","","","","left","z","true"
"","null","html-keyboard-response","215","2.0.0","198964","p6lubobgwfr","smaller","koala","to see if people get confused with the image size or the size of the subject in the image","nope","<p>Correct!</p>","null","","","","","","",""
"","null","html-keyboard-response","216","2.0.0","199979","p6lubobgwfr","smaller","koala","to see if people get confused with the image size or the size of the subject in the image","nope","<div style=""font-size:60px;"">+</div>","null","","","","","","",""
"","581","image-keyboard-response","217","2.0.0","200563","p6lubobgwfr","smaller","koala","to see if people get confused with the image size or the size of the subject in the image","nope","stimuli/16-Inongruent.jpg","z","","","","","left","z","true"
"","null","html-keyboard-response","218","2.0.0","201474","p6lubobgwfr","smaller","koala","to see if people get confused with the image size or the size of the subject in the image","nope","<p>Correct!</p>","null","","","","","","",""
"","null","html-keyboard-response","219","2.0.0","202484","p6lubobgwfr","smaller","koala","to see if people get confused with the image size or the size of the subject in the image","nope","<div style=""font-size:60px;"">+</div>","null","","","","","","",""
"","497","image-keyboard-response","220","2.0.0","202983","p6lubobgwfr","smaller","koala","to see if people get confused with the image size or the size of the subject in the image","nope","stimuli/27-Congruent.jpg","m","","","","","right","m","true"
"","null","html-keyboard-response","221","2.0.0","203898","p6lubobgwfr","smaller","koala","to see if people get confused with the image size or the size of the subject in the image","nope","<p>Correct!</p>","null","","","","","","",""
"","null","html-keyboard-response","222","2.0.0","204908","p6lubobgwfr","smaller","koala","to see if people get confused with the image size or the size of the subject in the image","nope","<div style=""font-size:60px;"">+</div>","null","","","","","","",""
"","460","image-keyboard-response","223","2.0.0","205369","p6lubobgwfr","smaller","koala","to see if people get confused with the image size or the size of the subject in the image","nope","stimuli/34-Congruent.jpg","m","","","","","right","m","true"
"","null","html-keyboard-response","224","2.0.0","206273","p6lubobgwfr","smaller","koala","to see if people get confused with the image size or the size of the subject in the image","nope","<p>Correct!</p>","null","","","","","","",""
"","null","html-keyboard-response","225","2.0.0","207288","p6lubobgwfr","smaller","koala","to see if people get confused with the image size or the size of the subject in the image","nope","<div style=""font-size:60px;"">+</div>","null","","","","","","",""
"","436","image-keyboard-response","226","2.0.0","207726","p6lubobgwfr","smaller","koala","to see if people get confused with the image size or the size of the subject in the image","nope","stimuli/3-Congruent.jpg","m","","","","","right","m","true"
"","null","html-keyboard-response","227","2.0.0","208637","p6lubobgwfr","smaller","koala","to see if people get confused with the image size or the size of the subject in the image","nope","<p>Correct!</p>","null","","","","","","",""
"","null","html-keyboard-response","228","2.0.0","209648","p6lubobgwfr","smaller","koala","to see if people get confused with the image size or the size of the subject in the image","nope","<div style=""font-size:60px;"">+</div>","null","","","","","","",""
"","559","image-keyboard-response","229","2.0.0","210208","p6lubobgwfr","smaller","koala","to see if people get confused with the image size or the size of the subject in the image","nope","stimuli/1-Inongruent.jpg","z","","","","","left","z","true"
"","null","html-keyboard-response","230","2.0.0","211112","p6lubobgwfr","smaller","koala","to see if people get confused with the image size or the size of the subject in the image","nope","<p>Correct!</p>","null","","","","","","",""
"","null","html-keyboard-response","231","2.0.0","212125","p6lubobgwfr","smaller","koala","to see if people get confused with the image size or the size of the subject in the image","nope","<div style=""font-size:60px;"">+</div>","null","","","","","","",""
"","600","image-keyboard-response","232","2.0.0","212726","p6lubobgwfr","smaller","koala","to see if people get confused with the image size or the size of the subject in the image","nope","stimuli/35-Congruent.jpg","m","","","","","right","m","true"
"","null","html-keyboard-response","233","2.0.0","213636","p6lubobgwfr","smaller","koala","to see if people get confused with the image size or the size of the subject in the image","nope","<p>Correct!</p>","null","","","","","","",""
"","null","html-keyboard-response","234","2.0.0","214646","p6lubobgwfr","smaller","koala","to see if people get confused with the image size or the size of the subject in the image","nope","<div style=""font-size:60px;"">+</div>","null","","","","","","",""
"","479","image-keyboard-response","235","2.0.0","215127","p6lubobgwfr","smaller","koala","to see if people get confused with the image size or the size of the subject in the image","nope","stimuli/7-Inongruent.jpg","z","","","","","left","z","true"
"","null","html-keyboard-response","236","2.0.0","216033","p6lubobgwfr","smaller","koala","to see if people get confused with the image size or the size of the subject in the image","nope","<p>Correct!</p>","null","","","","","","",""
"","null","html-keyboard-response","237","2.0.0","217045","p6lubobgwfr","smaller","koala","to see if people get confused with the image size or the size of the subject in the image","nope","<div style=""font-size:60px;"">+</div>","null","","","","","","",""
"","612","image-keyboard-response","238","2.0.0","217658","p6lubobgwfr","smaller","koala","to see if people get confused with the image size or the size of the subject in the image","nope","stimuli/24-Inongruent.jpg","z","","","","","left","z","true"
"","null","html-keyboard-response","239","2.0.0","218572","p6lubobgwfr","smaller","koala","to see if people get confused with the image size or the size of the subject in the image","nope","<p>Correct!</p>","null","","","","","","",""
"","null","html-keyboard-response","240","2.0.0","219579","p6lubobgwfr","smaller","koala","to see if people get confused with the image size or the size of the subject in the image","nope","<div style=""font-size:60px;"">+</div>","null","","","","","","",""
"","646","image-keyboard-response","241","2.0.0","220227","p6lubobgwfr","smaller","koala","to see if people get confused with the image size or the size of the subject in the image","nope","stimuli/30-Inongruent.jpg","z","","","","","left","z","true"
"","null","html-keyboard-response","242","2.0.0","221132","p6lubobgwfr","smaller","koala","to see if people get confused with the image size or the size of the subject in the image","nope","<p>Correct!</p>","null","","","","","","",""
"","null","html-keyboard-response","243","2.0.0","222143","p6lubobgwfr","smaller","koala","to see if people get confused with the image size or the size of the subject in the image","nope","<div style=""font-size:60px;"">+</div>","null","","","","","","",""
"","629","image-keyboard-response","244","2.0.0","222774","p6lubobgwfr","smaller","koala","to see if people get confused with the image size or the size of the subject in the image","nope","stimuli/20-Inongruent.jpg","z","","","","","left","z","true"
"","null","html-keyboard-response","245","2.0.0","223677","p6lubobgwfr","smaller","koala","to see if people get confused with the image size or the size of the subject in the image","nope","<p>Correct!</p>","null","","","","","","",""
"","null","html-keyboard-response","246","2.0.0","224688","p6lubobgwfr","smaller","koala","to see if people get confused with the image size or the size of the subject in the image","nope","<div style=""font-size:60px;"">+</div>","null","","","","","","",""
"","499","image-keyboard-response","247","2.0.0","225189","p6lubobgwfr","smaller","koala","to see if people get confused with the image size or the size of the subject in the image","nope","stimuli/6-Congruent.jpg","m","","","","","right","m","true"
"","null","html-keyboard-response","248","2.0.0","226106","p6lubobgwfr","smaller","koala","to see if people get confused with the image size or the size of the subject in the image","nope","<p>Correct!</p>","null","","","","","","",""
"","null","html-keyboard-response","249","2.0.0","227118","p6lubobgwfr","smaller","koala","to see if people get confused with the image size or the size of the subject in the image","nope","<div style=""font-size:60px;"">+</div>","null","","","","","","",""
"","519","image-keyboard-response","250","2.0.0","227639","p6lubobgwfr","smaller","koala","to see if people get confused with the image size or the size of the subject in the image","nope","stimuli/18-Inongruent.jpg","z","","","","","left","z","true"
"","null","html-keyboard-response","251","2.0.0","228546","p6lubobgwfr","smaller","koala","to see if people get confused with the image size or the size of the subject in the image","nope","<p>Correct!</p>","null","","","","","","",""
"","null","html-keyboard-response","252","2.0.0","229554","p6lubobgwfr","smaller","koala","to see if people get confused with the image size or the size of the subject in the image","nope","<div style=""font-size:60px;"">+</div>","null","","","","","","",""
"","460","image-keyboard-response","253","2.0.0","230016","p6lubobgwfr","smaller","koala","to see if people get confused with the image size or the size of the subject in the image","nope","stimuli/35-Congruent.jpg","m","","","","","right","m","true"
"","null","html-keyboard-response","254","2.0.0","230922","p6lubobgwfr","smaller","koala","to see if people get confused with the image size or the size of the subject in the image","nope","<p>Correct!</p>","null","","","","","","",""
"","null","html-keyboard-response","255","2.0.0","231933","p6lubobgwfr","smaller","koala","to see if people get confused with the image size or the size of the subject in the image","nope","<div style=""font-size:60px;"">+</div>","null","","","","","","",""
"","534","image-keyboard-response","256","2.0.0","232469","p6lubobgwfr","smaller","koala","to see if people get confused with the image size or the size of the subject in the image","nope","stimuli/29-Congruent.jpg","m","","","","","right","m","true"
"","null","html-keyboard-response","257","2.0.0","233378","p6lubobgwfr","smaller","koala","to see if people get confused with the image size or the size of the subject in the image","nope","<p>Correct!</p>","null","","","","","","",""
"","null","html-keyboard-response","258","2.0.0","234391","p6lubobgwfr","smaller","koala","to see if people get confused with the image size or the size of the subject in the image","nope","<div style=""font-size:60px;"">+</div>","null","","","","","","",""
"","545","image-keyboard-response","259","2.0.0","234938","p6lubobgwfr","smaller","koala","to see if people get confused with the image size or the size of the subject in the image","nope","stimuli/32-Congruent.jpg","m","","","","","right","m","true"
"","null","html-keyboard-response","260","2.0.0","235849","p6lubobgwfr","smaller","koala","to see if people get confused with the image size or the size of the subject in the image","nope","<p>Correct!</p>","null","","","","","","",""
"","null","html-keyboard-response","261","2.0.0","236859","p6lubobgwfr","smaller","koala","to see if people get confused with the image size or the size of the subject in the image","nope","<div style=""font-size:60px;"">+</div>","null","","","","","","",""
"","483","image-keyboard-response","262","2.0.0","237344","p6lubobgwfr","smaller","koala","to see if people get confused with the image size or the size of the subject in the image","nope","stimuli/4-Congruent.jpg","m","","","","","right","m","true"
"","null","html-keyboard-response","263","2.0.0","238254","p6lubobgwfr","smaller","koala","to see if people get confused with the image size or the size of the subject in the image","nope","<p>Correct!</p>","null","","","","","","",""
"","null","html-keyboard-response","264","2.0.0","239267","p6lubobgwfr","smaller","koala","to see if people get confused with the image size or the size of the subject in the image","nope","<div style=""font-size:60px;"">+</div>","null","","","","","","",""
"","690","image-keyboard-response","265","2.0.0","239964","p6lubobgwfr","smaller","koala","to see if people get confused with the image size or the size of the subject in the image","nope","stimuli/23-Congruent.jpg","m","","","","","right","m","true"
"","null","html-keyboard-response","266","2.0.0","240867","p6lubobgwfr","smaller","koala","to see if people get confused with the image size or the size of the subject in the image","nope","<p>Correct!</p>","null","","","","","","",""
"","null","html-keyboard-response","267","2.0.0","241877","p6lubobgwfr","smaller","koala","to see if people get confused with the image size or the size of the subject in the image","nope","<div style=""font-size:60px;"">+</div>","null","","","","","","",""
"","446","image-keyboard-response","268","2.0.0","242325","p6lubobgwfr","smaller","koala","to see if people get confused with the image size or the size of the subject in the image","nope","stimuli/36-Congruent.jpg","m","","","","","right","m","true"
"","null","html-keyboard-response","269","2.0.0","243230","p6lubobgwfr","smaller","koala","to see if people get confused with the image size or the size of the subject in the image","nope","<p>Correct!</p>","null","","","","","","",""
"","null","html-keyboard-response","270","2.0.0","244239","p6lubobgwfr","smaller","koala","to see if people get confused with the image size or the size of the subject in the image","nope","<div style=""font-size:60px;"">+</div>","null","","","","","","",""
"","615","image-keyboard-response","271","2.0.0","244855","p6lubobgwfr","smaller","koala","to see if people get confused with the image size or the size of the subject in the image","nope","stimuli/26-Inongruent.jpg","z","","","","","left","z","true"
"","null","html-keyboard-response","272","2.0.0","245759","p6lubobgwfr","smaller","koala","to see if people get confused with the image size or the size of the subject in the image","nope","<p>Correct!</p>","null","","","","","","",""
"","null","html-keyboard-response","273","2.0.0","246766","p6lubobgwfr","smaller","koala","to see if people get confused with the image size or the size of the subject in the image","nope","<div style=""font-size:60px;"">+</div>","null","","","","","","",""
"","420","image-keyboard-response","274","2.0.0","247188","p6lubobgwfr","smaller","koala","to see if people get confused with the image size or the size of the subject in the image","nope","stimuli/32-Congruent.jpg","m","","","","","right","m","true"
"","null","html-keyboard-response","275","2.0.0","248101","p6lubobgwfr","smaller","koala","to see if people get confused with the image size or the size of the subject in the image","nope","<p>Correct!</p>","null","","","","","","",""
"","null","html-keyboard-response","276","2.0.0","249110","p6lubobgwfr","smaller","koala","to see if people get confused with the image size or the size of the subject in the image","nope","<div style=""font-size:60px;"">+</div>","null","","","","","","",""
"","431","image-keyboard-response","277","2.0.0","249543","p6lubobgwfr","smaller","koala","to see if people get confused with the image size or the size of the subject in the image","nope","stimuli/33-Congruent.jpg","m","","","","","right","m","true"
"","null","html-keyboard-response","278","2.0.0","250456","p6lubobgwfr","smaller","koala","to see if people get confused with the image size or the size of the subject in the image","nope","<p>Correct!</p>","null","","","","","","",""
"","null","html-keyboard-response","279","2.0.0","251467","p6lubobgwfr","smaller","koala","to see if people get confused with the image size or the size of the subject in the image","nope","<div style=""font-size:60px;"">+</div>","null","","","","","","",""
"","444","image-keyboard-response","280","2.0.0","251914","p6lubobgwfr","smaller","koala","to see if people get confused with the image size or the size of the subject in the image","nope","stimuli/34-Inongruent.jpg","z","","","","","left","z","true"
"","null","html-keyboard-response","281","2.0.0","252821","p6lubobgwfr","smaller","koala","to see if people get confused with the image size or the size of the subject in the image","nope","<p>Correct!</p>","null","","","","","","",""
"","null","html-keyboard-response","282","2.0.0","253828","p6lubobgwfr","smaller","koala","to see if people get confused with the image size or the size of the subject in the image","nope","<div style=""font-size:60px;"">+</div>","null","","","","","","",""
"","397","image-keyboard-response","283","2.0.0","254227","p6lubobgwfr","smaller","koala","to see if people get confused with the image size or the size of the subject in the image","nope","stimuli/35-Inongruent.jpg","z","","","","","left","z","true"
"","null","html-keyboard-response","284","2.0.0","255133","p6lubobgwfr","smaller","koala","to see if people get confused with the image size or the size of the subject in the image","nope","<p>Correct!</p>","null","","","","","","",""
"","null","html-keyboard-response","285","2.0.0","256142","p6lubobgwfr","smaller","koala","to see if people get confused with the image size or the size of the subject in the image","nope","<div style=""font-size:60px;"">+</div>","null","","","","","","",""
"","523","image-keyboard-response","286","2.0.0","256667","p6lubobgwfr","smaller","koala","to see if people get confused with the image size or the size of the subject in the image","nope","stimuli/18-Congruent.jpg","m","","","","","right","m","true"
"","null","html-keyboard-response","287","2.0.0","257576","p6lubobgwfr","smaller","koala","to see if people get confused with the image size or the size of the subject in the image","nope","<p>Correct!</p>","null","","","","","","",""
"","null","html-keyboard-response","288","2.0.0","258585","p6lubobgwfr","smaller","koala","to see if people get confused with the image size or the size of the subject in the image","nope","<div style=""font-size:60px;"">+</div>","null","","","","","","",""
"","407","image-keyboard-response","289","2.0.0","258996","p6lubobgwfr","smaller","koala","to see if people get confused with the image size or the size of the subject in the image","nope","stimuli/21-Congruent.jpg","m","","","","","right","m","true"
"","null","html-keyboard-response","290","2.0.0","259902","p6lubobgwfr","smaller","koala","to see if people get confused with the image size or the size of the subject in the image","nope","<p>Correct!</p>","null","","","","","","",""
"","null","html-keyboard-response","291","2.0.0","260912","p6lubobgwfr","smaller","koala","to see if people get confused with the image size or the size of the subject in the image","nope","<div style=""font-size:60px;"">+</div>","null","","","","","","",""
"","405","image-keyboard-response","292","2.0.0","261320","p6lubobgwfr","smaller","koala","to see if people get confused with the image size or the size of the subject in the image","nope","stimuli/13-Inongruent.jpg","z","","","","","left","z","true"
"","null","html-keyboard-response","293","2.0.0","262228","p6lubobgwfr","smaller","koala","to see if people get confused with the image size or the size of the subject in the image","nope","<p>Correct!</p>","null","","","","","","",""
"","null","html-keyboard-response","294","2.0.0","263238","p6lubobgwfr","smaller","koala","to see if people get confused with the image size or the size of the subject in the image","nope","<div style=""font-size:60px;"">+</div>","null","","","","","","",""
"","846","image-keyboard-response","295","2.0.0","264087","p6lubobgwfr","smaller","koala","to see if people get confused with the image size or the size of the subject in the image","nope","stimuli/3-Inongruent.jpg","z","","","","","left","z","true"
"","null","html-keyboard-response","296","2.0.0","264990","p6lubobgwfr","smaller","koala","to see if people get confused with the image size or the size of the subject in the image","nope","<p>Correct!</p>","null","","","","","","",""
"","null","html-keyboard-response","297","2.0.0","266002","p6lubobgwfr","smaller","koala","to see if people get confused with the image size or the size of the subject in the image","nope","<div style=""font-size:60px;"">+</div>","null","","","","","","",""
"","582","image-keyboard-response","298","2.0.0","266586","p6lubobgwfr","smaller","koala","to see if people get confused with the image size or the size of the subject in the image","nope","stimuli/6-Inongruent.jpg","z","","","","","left","z","true"
"","null","html-keyboard-response","299","2.0.0","267500","p6lubobgwfr","smaller","koala","to see if people get confused with the image size or the size of the subject in the image","nope","<p>Correct!</p>","null","","","","","","",""
"","null","html-keyboard-response","300","2.0.0","268512","p6lubobgwfr","smaller","koala","to see if people get confused with the image size or the size of the subject in the image","nope","<div style=""font-size:60px;"">+</div>","null","","","","","","",""
"","719","image-keyboard-response","301","2.0.0","269234","p6lubobgwfr","smaller","koala","to see if people get confused with the image size or the size of the subject in the image","nope","stimuli/14-Inongruent.jpg","z","","","","","left","z","true"
"","null","html-keyboard-response","302","2.0.0","270144","p6lubobgwfr","smaller","koala","to see if people get confused with the image size or the size of the subject in the image","nope","<p>Correct!</p>","null","","","","","","",""
"","null","html-keyboard-response","303","2.0.0","271157","p6lubobgwfr","smaller","koala","to see if people get confused with the image size or the size of the subject in the image","nope","<div style=""font-size:60px;"">+</div>","null","","","","","","",""
"","552","image-keyboard-response","304","2.0.0","271711","p6lubobgwfr","smaller","koala","to see if people get confused with the image size or the size of the subject in the image","nope","stimuli/24-Inongruent.jpg","z","","","","","left","z","true"
"","null","html-keyboard-response","305","2.0.0","272616","p6lubobgwfr","smaller","koala","to see if people get confused with the image size or the size of the subject in the image","nope","<p>Correct!</p>","null","","","","","","",""
"","null","html-keyboard-response","306","2.0.0","273630","p6lubobgwfr","smaller","koala","to see if people get confused with the image size or the size of the subject in the image","nope","<div style=""font-size:60px;"">+</div>","null","","","","","","",""
"","461","image-keyboard-response","307","2.0.0","274092","p6lubobgwfr","smaller","koala","to see if people get confused with the image size or the size of the subject in the image","nope","stimuli/30-Congruent.jpg","m","","","","","right","m","true"
"","null","html-keyboard-response","308","2.0.0","274996","p6lubobgwfr","smaller","koala","to see if people get confused with the image size or the size of the subject in the image","nope","<p>Correct!</p>","null","","","","","","",""
"","null","html-keyboard-response","309","2.0.0","276007","p6lubobgwfr","smaller","koala","to see if people get confused with the image size or the size of the subject in the image","nope","<div style=""font-size:60px;"">+</div>","null","","","","","","",""
"","529","image-keyboard-response","310","2.0.0","276538","p6lubobgwfr","smaller","koala","to see if people get confused with the image size or the size of the subject in the image","nope","stimuli/21-Inongruent.jpg","z","","","","","left","z","true"
"","null","html-keyboard-response","311","2.0.0","277452","p6lubobgwfr","smaller","koala","to see if people get confused with the image size or the size of the subject in the image","nope","<p>Correct!</p>","null","","","","","","",""
"","null","html-keyboard-response","312","2.0.0","278464","p6lubobgwfr","smaller","koala","to see if people get confused with the image size or the size of the subject in the image","nope","<div style=""font-size:60px;"">+</div>","null","","","","","","",""
"","498","image-keyboard-response","313","2.0.0","278963","p6lubobgwfr","smaller","koala","to see if people get confused with the image size or the size of the subject in the image","nope","stimuli/20-Congruent.jpg","m","","","","","right","m","true"
"","null","html-keyboard-response","314","2.0.0","279878","p6lubobgwfr","smaller","koala","to see if people get confused with the image size or the size of the subject in the image","nope","<p>Correct!</p>","null","","","","","","",""
"","null","html-keyboard-response","315","2.0.0","280889","p6lubobgwfr","smaller","koala","to see if people get confused with the image size or the size of the subject in the image","nope","<div style=""font-size:60px;"">+</div>","null","","","","","","",""
"","499","image-keyboard-response","316","2.0.0","281390","p6lubobgwfr","smaller","koala","to see if people get confused with the image size or the size of the subject in the image","nope","stimuli/31-Congruent.jpg","m","","","","","right","m","true"
"","null","html-keyboard-response","317","2.0.0","282301","p6lubobgwfr","smaller","koala","to see if people get confused with the image size or the size of the subject in the image","nope","<p>Correct!</p>","null","","","","","","",""
"","null","html-keyboard-response","318","2.0.0","283313","p6lubobgwfr","smaller","koala","to see if people get confused with the image size or the size of the subject in the image","nope","<div style=""font-size:60px;"">+</div>","null","","","","","","",""
"","481","image-keyboard-response","319","2.0.0","283796","p6lubobgwfr","smaller","koala","to see if people get confused with the image size or the size of the subject in the image","nope","stimuli/23-Inongruent.jpg","z","","","","","left","z","true"
"","null","html-keyboard-response","320","2.0.0","284711","p6lubobgwfr","smaller","koala","to see if people get confused with the image size or the size of the subject in the image","nope","<p>Correct!</p>","null","","","","","","",""
"","null","html-keyboard-response","321","2.0.0","285721","p6lubobgwfr","smaller","koala","to see if people get confused with the image size or the size of the subject in the image","nope","<div style=""font-size:60px;"">+</div>","null","","","","","","",""
"","451","image-keyboard-response","322","2.0.0","286175","p6lubobgwfr","smaller","koala","to see if people get confused with the image size or the size of the subject in the image","nope","stimuli/9-Congruent.jpg","m","","","","","right","m","true"
"","null","html-keyboard-response","323","2.0.0","287090","p6lubobgwfr","smaller","koala","to see if people get confused with the image size or the size of the subject in the image","nope","<p>Correct!</p>","null","","","","","","",""
"","null","html-keyboard-response","324","2.0.0","288102","p6lubobgwfr","smaller","koala","to see if people get confused with the image size or the size of the subject in the image","nope","<div style=""font-size:60px;"">+</div>","null","","","","","","",""
"","600","image-keyboard-response","325","2.0.0","288705","p6lubobgwfr","smaller","koala","to see if people get confused with the image size or the size of the subject in the image","nope","stimuli/3-Congruent.jpg","m","","","","","right","m","true"
"","null","html-keyboard-response","326","2.0.0","289608","p6lubobgwfr","smaller","koala","to see if people get confused with the image size or the size of the subject in the image","nope","<p>Correct!</p>","null","","","","","","",""
"","null","html-keyboard-response","327","2.0.0","290619","p6lubobgwfr","smaller","koala","to see if people get confused with the image size or the size of the subject in the image","nope","<div style=""font-size:60px;"">+</div>","null","","","","","","",""
"","604","image-keyboard-response","328","2.0.0","291225","p6lubobgwfr","smaller","koala","to see if people get confused with the image size or the size of the subject in the image","nope","stimuli/35-Inongruent.jpg","z","","","","","left","z","true"
"","null","html-keyboard-response","329","2.0.0","292126","p6lubobgwfr","smaller","koala","to see if people get confused with the image size or the size of the subject in the image","nope","<p>Correct!</p>","null","","","","","","",""
"","null","html-keyboard-response","330","2.0.0","293134","p6lubobgwfr","smaller","koala","to see if people get confused with the image size or the size of the subject in the image","nope","<div style=""font-size:60px;"">+</div>","null","","","","","","",""
"","593","image-keyboard-response","331","2.0.0","293729","p6lubobgwfr","smaller","koala","to see if people get confused with the image size or the size of the subject in the image","nope","stimuli/14-Inongruent.jpg","z","","","","","left","z","true"
"","null","html-keyboard-response","332","2.0.0","294634","p6lubobgwfr","smaller","koala","to see if people get confused with the image size or the size of the subject in the image","nope","<p>Correct!</p>","null","","","","","","",""
"","null","html-keyboard-response","333","2.0.0","295645","p6lubobgwfr","smaller","koala","to see if people get confused with the image size or the size of the subject in the image","nope","<div style=""font-size:60px;"">+</div>","null","","","","","","",""
"","458","image-keyboard-response","334","2.0.0","296105","p6lubobgwfr","smaller","koala","to see if people get confused with the image size or the size of the subject in the image","nope","stimuli/17-Congruent.jpg","m","","","","","right","m","true"
"","null","html-keyboard-response","335","2.0.0","297012","p6lubobgwfr","smaller","koala","to see if people get confused with the image size or the size of the subject in the image","nope","<p>Correct!</p>","null","","","","","","",""
"","null","html-keyboard-response","336","2.0.0","298021","p6lubobgwfr","smaller","koala","to see if people get confused with the image size or the size of the subject in the image","nope","<div style=""font-size:60px;"">+</div>","null","","","","","","",""
"","577","image-keyboard-response","337","2.0.0","298600","p6lubobgwfr","smaller","koala","to see if people get confused with the image size or the size of the subject in the image","nope","stimuli/5-Inongruent.jpg","z","","","","","left","z","true"
"","null","html-keyboard-response","338","2.0.0","299502","p6lubobgwfr","smaller","koala","to see if people get confused with the image size or the size of the subject in the image","nope","<p>Correct!</p>","null","","","","","","",""
"","null","html-keyboard-response","339","2.0.0","300512","p6lubobgwfr","smaller","koala","to see if people get confused with the image size or the size of the subject in the image","nope","<div style=""font-size:60px;"">+</div>","null","","","","","","",""
"","519","image-keyboard-response","340","2.0.0","301034","p6lubobgwfr","smaller","koala","to see if people get confused with the image size or the size of the subject in the image","nope","stimuli/8-Inongruent.jpg","z","","","","","left","z","true"
"","null","html-keyboard-response","341","2.0.0","301942","p6lubobgwfr","smaller","koala","to see if people get confused with the image size or the size of the subject in the image","nope","<p>Correct!</p>","null","","","","","","",""
"","null","html-keyboard-response","342","2.0.0","302953","p6lubobgwfr","smaller","koala","to see if people get confused with the image size or the size of the subject in the image","nope","<div style=""font-size:60px;"">+</div>","null","","","","","","",""
"","484","image-keyboard-response","343","2.0.0","303439","p6lubobgwfr","smaller","koala","to see if people get confused with the image size or the size of the subject in the image","nope","stimuli/11-Congruent.jpg","m","","","","","right","m","true"
"","null","html-keyboard-response","344","2.0.0","304354","p6lubobgwfr","smaller","koala","to see if people get confused with the image size or the size of the subject in the image","nope","<p>Correct!</p>","null","","","","","","",""
"","null","html-keyboard-response","345","2.0.0","305361","p6lubobgwfr","smaller","koala","to see if people get confused with the image size or the size of the subject in the image","nope","<div style=""font-size:60px;"">+</div>","null","","","","","","",""
"","367","image-keyboard-response","346","2.0.0","305730","p6lubobgwfr","smaller","koala","to see if people get confused with the image size or the size of the subject in the image","nope","stimuli/29-Inongruent.jpg","z","","","","","left","z","true"
"","null","html-keyboard-response","347","2.0.0","306635","p6lubobgwfr","smaller","koala","to see if people get confused with the image size or the size of the subject in the image","nope","<p>Correct!</p>","null","","","","","","",""
"","null","html-keyboard-response","348","2.0.0","307652","p6lubobgwfr","smaller","koala","to see if people get confused with the image size or the size of the subject in the image","nope","<div style=""font-size:60px;"">+</div>","null","","","","","","",""
"","505","image-keyboard-response","349","2.0.0","308160","p6lubobgwfr","smaller","koala","to see if people get confused with the image size or the size of the subject in the image","nope","stimuli/26-Congruent.jpg","m","","","","","right","m","true"
"","null","html-keyboard-response","350","2.0.0","309076","p6lubobgwfr","smaller","koala","to see if people get confused with the image size or the size of the subject in the image","nope","<p>Correct!</p>","null","","","","","","",""
"","null","html-keyboard-response","351","2.0.0","310090","p6lubobgwfr","smaller","koala","to see if people get confused with the image size or the size of the subject in the image","nope","<div style=""font-size:60px;"">+</div>","null","","","","","","",""
"","368","image-keyboard-response","352","2.0.0","310461","p6lubobgwfr","smaller","koala","to see if people get confused with the image size or the size of the subject in the image","nope","stimuli/12-Inongruent.jpg","z","","","","","left","z","true"
"","null","html-keyboard-response","353","2.0.0","311364","p6lubobgwfr","smaller","koala","to see if people get confused with the image size or the size of the subject in the image","nope","<p>Correct!</p>","null","","","","","","",""
"","null","html-keyboard-response","354","2.0.0","312374","p6lubobgwfr","smaller","koala","to see if people get confused with the image size or the size of the subject in the image","nope","<div style=""font-size:60px;"">+</div>","null","","","","","","",""
"","467","image-keyboard-response","355","2.0.0","312844","p6lubobgwfr","smaller","koala","to see if people get confused with the image size or the size of the subject in the image","nope","stimuli/19-Inongruent.jpg","z","","","","","left","z","true"
"","null","html-keyboard-response","356","2.0.0","313759","p6lubobgwfr","smaller","koala","to see if people get confused with the image size or the size of the subject in the image","nope","<p>Correct!</p>","null","","","","","","",""
"","null","html-keyboard-response","357","2.0.0","314773","p6lubobgwfr","smaller","koala","to see if people get confused with the image size or the size of the subject in the image","nope","<div style=""font-size:60px;"">+</div>","null","","","","","","",""
"","484","image-keyboard-response","358","2.0.0","315259","p6lubobgwfr","smaller","koala","to see if people get confused with the image size or the size of the subject in the image","nope","stimuli/25-Inongruent.jpg","z","","","","","left","z","true"
"","null","html-keyboard-response","359","2.0.0","316171","p6lubobgwfr","smaller","koala","to see if people get confused with the image size or the size of the subject in the image","nope","<p>Correct!</p>","null","","","","","","",""
"","null","html-keyboard-response","360","2.0.0","317178","p6lubobgwfr","smaller","koala","to see if people get confused with the image size or the size of the subject in the image","nope","<div style=""font-size:60px;"">+</div>","null","","","","","","",""
"","562","image-keyboard-response","361","2.0.0","317743","p6lubobgwfr","smaller","koala","to see if people get confused with the image size or the size of the subject in the image","nope","stimuli/31-Inongruent.jpg","z","","","","","left","z","true"
"","null","html-keyboard-response","362","2.0.0","318655","p6lubobgwfr","smaller","koala","to see if people get confused with the image size or the size of the subject in the image","nope","<p>Correct!</p>","null","","","","","","",""
"","null","html-keyboard-response","363","2.0.0","319667","p6lubobgwfr","smaller","koala","to see if people get confused with the image size or the size of the subject in the image","nope","<div style=""font-size:60px;"">+</div>","null","","","","","","",""
"","536","image-keyboard-response","364","2.0.0","320205","p6lubobgwfr","smaller","koala","to see if people get confused with the image size or the size of the subject in the image","nope","stimuli/14-Congruent.jpg","m","","","","","right","m","true"
"","null","html-keyboard-response","365","2.0.0","321113","p6lubobgwfr","smaller","koala","to see if people get confused with the image size or the size of the subject in the image","nope","<p>Correct!</p>","null","","","","","","",""
"","null","html-keyboard-response","366","2.0.0","322119","p6lubobgwfr","smaller","koala","to see if people get confused with the image size or the size of the subject in the image","nope","<div style=""font-size:60px;"">+</div>","null","","","","","","",""
"","508","image-keyboard-response","367","2.0.0","322628","p6lubobgwfr","smaller","koala","to see if people get confused with the image size or the size of the subject in the image","nope","stimuli/5-Congruent.jpg","m","","","","","right","m","true"
"","null","html-keyboard-response","368","2.0.0","323532","p6lubobgwfr","smaller","koala","to see if people get confused with the image size or the size of the subject in the image","nope","<p>Correct!</p>","null","","","","","","",""
"","null","html-keyboard-response","369","2.0.0","324540","p6lubobgwfr","smaller","koala","to see if people get confused with the image size or the size of the subject in the image","nope","<div style=""font-size:60px;"">+</div>","null","","","","","","",""
"","575","image-keyboard-response","370","2.0.0","325117","p6lubobgwfr","smaller","koala","to see if people get confused with the image size or the size of the subject in the image","nope","stimuli/12-Congruent.jpg","m","","","","","right","m","true"
"","null","html-keyboard-response","371","2.0.0","326033","p6lubobgwfr","smaller","koala","to see if people get confused with the image size or the size of the subject in the image","nope","<p>Correct!</p>","null","","","","","","",""
"","null","html-keyboard-response","372","2.0.0","327048","p6lubobgwfr","smaller","koala","to see if people get confused with the image size or the size of the subject in the image","nope","<div style=""font-size:60px;"">+</div>","null","","","","","","",""
"","450","image-keyboard-response","373","2.0.0","327502","p6lubobgwfr","smaller","koala","to see if people get confused with the image size or the size of the subject in the image","nope","stimuli/10-Congruent.jpg","m","","","","","right","m","true"
"","null","html-keyboard-response","374","2.0.0","328405","p6lubobgwfr","smaller","koala","to see if people get confused with the image size or the size of the subject in the image","nope","<p>Correct!</p>","null","","","","","","",""
"","null","html-keyboard-response","375","2.0.0","329415","p6lubobgwfr","smaller","koala","to see if people get confused with the image size or the size of the subject in the image","nope","<div style=""font-size:60px;"">+</div>","null","","","","","","",""
"","423","image-keyboard-response","376","2.0.0","329842","p6lubobgwfr","smaller","koala","to see if people get confused with the image size or the size of the subject in the image","nope","stimuli/33-Congruent.jpg","m","","","","","right","m","true"
"","null","html-keyboard-response","377","2.0.0","330756","p6lubobgwfr","smaller","koala","to see if people get confused with the image size or the size of the subject in the image","nope","<p>Correct!</p>","null","","","","","","",""
"","null","html-keyboard-response","378","2.0.0","331770","p6lubobgwfr","smaller","koala","to see if people get confused with the image size or the size of the subject in the image","nope","<div style=""font-size:60px;"">+</div>","null","","","","","","",""
"","378","image-keyboard-response","379","2.0.0","332150","p6lubobgwfr","smaller","koala","to see if people get confused with the image size or the size of the subject in the image","nope","stimuli/31-Congruent.jpg","m","","","","","right","m","true"
"","null","html-keyboard-response","380","2.0.0","333062","p6lubobgwfr","smaller","koala","to see if people get confused with the image size or the size of the subject in the image","nope","<p>Correct!</p>","null","","","","","","",""
"","null","html-keyboard-response","381","2.0.0","334076","p6lubobgwfr","smaller","koala","to see if people get confused with the image size or the size of the subject in the image","nope","<div style=""font-size:60px;"">+</div>","null","","","","","","",""
"","496","image-keyboard-response","382","2.0.0","334575","p6lubobgwfr","smaller","koala","to see if people get confused with the image size or the size of the subject in the image","nope","stimuli/26-Inongruent.jpg","z","","","","","left","z","true"
"","null","html-keyboard-response","383","2.0.0","335492","p6lubobgwfr","smaller","koala","to see if people get confused with the image size or the size of the subject in the image","nope","<p>Correct!</p>","null","","","","","","",""
"","null","html-keyboard-response","384","2.0.0","336509","p6lubobgwfr","smaller","koala","to see if people get confused with the image size or the size of the subject in the image","nope","<div style=""font-size:60px;"">+</div>","null","","","","","","",""
"","463","image-keyboard-response","385","2.0.0","336974","p6lubobgwfr","smaller","koala","to see if people get confused with the image size or the size of the subject in the image","nope","stimuli/28-Inongruent.jpg","z","","","","","left","z","true"
"","null","html-keyboard-response","386","2.0.0","337878","p6lubobgwfr","smaller","koala","to see if people get confused with the image size or the size of the subject in the image","nope","<p>Correct!</p>","null","","","","","","",""
"","null","html-keyboard-response","387","2.0.0","338893","p6lubobgwfr","smaller","koala","to see if people get confused with the image size or the size of the subject in the image","nope","<div style=""font-size:60px;"">+</div>","null","","","","","","",""
"","685","image-keyboard-response","388","2.0.0","339579","p6lubobgwfr","smaller","koala","to see if people get confused with the image size or the size of the subject in the image","nope","stimuli/36-Inongruent.jpg","z","","","","","left","z","true"
"","null","html-keyboard-response","389","2.0.0","340491","p6lubobgwfr","smaller","koala","to see if people get confused with the image size or the size of the subject in the image","nope","<p>Correct!</p>","null","","","","","","",""
"","null","html-keyboard-response","390","2.0.0","341503","p6lubobgwfr","smaller","koala","to see if people get confused with the image size or the size of the subject in the image","nope","<div style=""font-size:60px;"">+</div>","null","","","","","","",""
"","627","image-keyboard-response","391","2.0.0","342133","p6lubobgwfr","smaller","koala","to see if people get confused with the image size or the size of the subject in the image","nope","stimuli/11-Inongruent.jpg","z","","","","","left","z","true"
"","null","html-keyboard-response","392","2.0.0","343039","p6lubobgwfr","smaller","koala","to see if people get confused with the image size or the size of the subject in the image","nope","<p>Correct!</p>","null","","","","","","",""
"","null","html-keyboard-response","393","2.0.0","344052","p6lubobgwfr","smaller","koala","to see if people get confused with the image size or the size of the subject in the image","nope","<div style=""font-size:60px;"">+</div>","null","","","","","","",""
"","713","image-keyboard-response","394","2.0.0","344767","p6lubobgwfr","smaller","koala","to see if people get confused with the image size or the size of the subject in the image","nope","stimuli/20-Inongruent.jpg","z","","","","","left","z","true"
"","null","html-keyboard-response","395","2.0.0","345674","p6lubobgwfr","smaller","koala","to see if people get confused with the image size or the size of the subject in the image","nope","<p>Correct!</p>","null","","","","","","",""
"","null","html-keyboard-response","396","2.0.0","346694","p6lubobgwfr","smaller","koala","to see if people get confused with the image size or the size of the subject in the image","nope","<div style=""font-size:60px;"">+</div>","null","","","","","","",""
"","566","image-keyboard-response","397","2.0.0","347263","p6lubobgwfr","smaller","koala","to see if people get confused with the image size or the size of the subject in the image","nope","stimuli/16-Inongruent.jpg","z","","","","","left","z","true"
"","null","html-keyboard-response","398","2.0.0","348174","p6lubobgwfr","smaller","koala","to see if people get confused with the image size or the size of the subject in the image","nope","<p>Correct!</p>","null","","","","","","",""
"","null","html-keyboard-response","399","2.0.0","349189","p6lubobgwfr","smaller","koala","to see if people get confused with the image size or the size of the subject in the image","nope","<div style=""font-size:60px;"">+</div>","null","","","","","","",""
