"success","rt","trial_type","trial_index","plugin_version","time_elapsed","random_id","condition","participant","participant_thoughts","participant_difficulties","stimulus","response","timeout","failed_images","failed_audio","failed_video","correct_response","correct_response_key","correct"
"true","1402","fullscreen","0","null","2416","p6xl036oqq0","bigger"," penguin","To test whether the real life ""size"" of items would effect the way they are determined on a computer screen.","","","","","","","","","",""
"","901","html-keyboard-response","1","2.0.0","3319","p6xl036oqq0","bigger"," penguin","To test whether the real life ""size"" of items would effect the way they are determined on a computer screen.","","Welcome to the Size Stroop experiment. Press any key to begin."," ","","","","","","",""
"","null","html-keyboard-response","2","2.0.0","4327","p6xl036oqq0","bigger"," penguin","To test whether the real life ""size"" of items would effect the way they are determined on a computer screen.","","This trial will be in fullscreen mode.","null","","","","","","",""
"","4974","survey-text","3","2.0.0","9306","p6xl036oqq0","bigger"," penguin","To test whether the real life ""size"" of items would effect the way they are determined on a computer screen.","","","{""participant_id"":"" penguin""}","","","","","","",""
"","6126","html-keyboard-response","4","2.0.0","15433","p6xl036oqq0","bigger"," penguin","To test whether the real life ""size"" of items would effect the way they are determined on a computer screen.","","<p>In this experiment, two images will appear on the screen. Identify the <strong>larger</strong> images.</p>
              <p>If the image on the left is larger, press ""z"". If the image on the right is larger, press ""m"".</p>
              <p>Press any key to begin.</p>"," ","","","","","","",""
"true","","preload","5","2.0.0","15594","p6xl036oqq0","bigger"," penguin","To test whether the real life ""size"" of items would effect the way they are determined on a computer screen.","","","","false","[]","[]","[]","","",""
"","null","html-keyboard-response","6","2.0.0","16606","p6xl036oqq0","bigger"," penguin","To test whether the real life ""size"" of items would effect the way they are determined on a computer screen.","","<div style=""font-size:60px;"">+</div>","null","","","","","","",""
"","863","image-keyboard-response","7","2.0.0","17474","p6xl036oqq0","bigger"," penguin","To test whether the real life ""size"" of items would effect the way they are determined on a computer screen.","","stimuli/29-Inongruent.jpg","m","","","","","right","m","true"
"","null","html-keyboard-response","8","2.0.0","18387","p6xl036oqq0","bigger"," penguin","To test whether the real life ""size"" of items would effect the way they are determined on a computer screen.","","<p>Correct!</p>","null","","","","","","",""
"","null","html-keyboard-response","9","2.0.0","19401","p6xl036oqq0","bigger"," penguin","To test whether the real life ""size"" of items would effect the way they are determined on a computer screen.","","<div style=""font-size:60px;"">+</div>","null","","","","","","",""
"","717","image-keyboard-response","10","2.0.0","20121","p6xl036oqq0","bigger"," penguin","To test whether the real life ""size"" of items would effect the way they are determined on a computer screen.","","stimuli/20-Inongruent.jpg","m","","","","","right","m","true"
"","null","html-keyboard-response","11","2.0.0","21038","p6xl036oqq0","bigger"," penguin","To test whether the real life ""size"" of items would effect the way they are determined on a computer screen.","","<p>Correct!</p>","null","","","","","","",""
"","null","html-keyboard-response","12","2.0.0","22053","p6xl036oqq0","bigger"," penguin","To test whether the real life ""size"" of items would effect the way they are determined on a computer screen.","","<div style=""font-size:60px;"">+</div>","null","","","","","","",""
"","572","image-keyboard-response","13","2.0.0","22627","p6xl036oqq0","bigger"," penguin","To test whether the real life ""size"" of items would effect the way they are determined on a computer screen.","","stimuli/12-Congruent.jpg","z","","","","","left","z","true"
"","null","html-keyboard-response","14","2.0.0","23534","p6xl036oqq0","bigger"," penguin","To test whether the real life ""size"" of items would effect the way they are determined on a computer screen.","","<p>Correct!</p>","null","","","","","","",""
"","null","html-keyboard-response","15","2.0.0","24551","p6xl036oqq0","bigger"," penguin","To test whether the real life ""size"" of items would effect the way they are determined on a computer screen.","","<div style=""font-size:60px;"">+</div>","null","","","","","","",""
"","521","image-keyboard-response","16","2.0.0","25074","p6xl036oqq0","bigger"," penguin","To test whether the real life ""size"" of items would effect the way they are determined on a computer screen.","","stimuli/24-Inongruent.jpg","m","","","","","right","m","true"
"","null","html-keyboard-response","17","2.0.0","25989","p6xl036oqq0","bigger"," penguin","To test whether the real life ""size"" of items would effect the way they are determined on a computer screen.","","<p>Correct!</p>","null","","","","","","",""
"","null","html-keyboard-response","18","2.0.0","27004","p6xl036oqq0","bigger"," penguin","To test whether the real life ""size"" of items would effect the way they are determined on a computer screen.","","<div style=""font-size:60px;"">+</div>","null","","","","","","",""
"","494","image-keyboard-response","19","2.0.0","27502","p6xl036oqq0","bigger"," penguin","To test whether the real life ""size"" of items would effect the way they are determined on a computer screen.","","stimuli/30-Congruent.jpg","z","","","","","left","z","true"
"","null","html-keyboard-response","20","2.0.0","28404","p6xl036oqq0","bigger"," penguin","To test whether the real life ""size"" of items would effect the way they are determined on a computer screen.","","<p>Correct!</p>","null","","","","","","",""
"","null","html-keyboard-response","21","2.0.0","29419","p6xl036oqq0","bigger"," penguin","To test whether the real life ""size"" of items would effect the way they are determined on a computer screen.","","<div style=""font-size:60px;"">+</div>","null","","","","","","",""
"","527","image-keyboard-response","22","2.0.0","29949","p6xl036oqq0","bigger"," penguin","To test whether the real life ""size"" of items would effect the way they are determined on a computer screen.","","stimuli/29-Congruent.jpg","z","","","","","left","z","true"
"","null","html-keyboard-response","23","2.0.0","30855","p6xl036oqq0","bigger"," penguin","To test whether the real life ""size"" of items would effect the way they are determined on a computer screen.","","<p>Correct!</p>","null","","","","","","",""
"","null","html-keyboard-response","24","2.0.0","31866","p6xl036oqq0","bigger"," penguin","To test whether the real life ""size"" of items would effect the way they are determined on a computer screen.","","<div style=""font-size:60px;"">+</div>","null","","","","","","",""
"","459","image-keyboard-response","25","2.0.0","32327","p6xl036oqq0","bigger"," penguin","To test whether the real life ""size"" of items would effect the way they are determined on a computer screen.","","stimuli/15-Congruent.jpg","z","","","","","left","z","true"
"","null","html-keyboard-response","26","2.0.0","33241","p6xl036oqq0","bigger"," penguin","To test whether the real life ""size"" of items would effect the way they are determined on a computer screen.","","<p>Correct!</p>","null","","","","","","",""
"","null","html-keyboard-response","27","2.0.0","34254","p6xl036oqq0","bigger"," penguin","To test whether the real life ""size"" of items would effect the way they are determined on a computer screen.","","<div style=""font-size:60px;"">+</div>","null","","","","","","",""
"","448","image-keyboard-response","28","2.0.0","34704","p6xl036oqq0","bigger"," penguin","To test whether the real life ""size"" of items would effect the way they are determined on a computer screen.","","stimuli/22-Inongruent.jpg","m","","","","","right","m","true"
"","null","html-keyboard-response","29","2.0.0","35612","p6xl036oqq0","bigger"," penguin","To test whether the real life ""size"" of items would effect the way they are determined on a computer screen.","","<p>Correct!</p>","null","","","","","","",""
"","null","html-keyboard-response","30","2.0.0","36629","p6xl036oqq0","bigger"," penguin","To test whether the real life ""size"" of items would effect the way they are determined on a computer screen.","","<div style=""font-size:60px;"">+</div>","null","","","","","","",""
"","436","image-keyboard-response","31","2.0.0","37067","p6xl036oqq0","bigger"," penguin","To test whether the real life ""size"" of items would effect the way they are determined on a computer screen.","","stimuli/8-Congruent.jpg","z","","","","","left","z","true"
"","null","html-keyboard-response","32","2.0.0","37971","p6xl036oqq0","bigger"," penguin","To test whether the real life ""size"" of items would effect the way they are determined on a computer screen.","","<p>Correct!</p>","null","","","","","","",""
"","null","html-keyboard-response","33","2.0.0","38985","p6xl036oqq0","bigger"," penguin","To test whether the real life ""size"" of items would effect the way they are determined on a computer screen.","","<div style=""font-size:60px;"">+</div>","null","","","","","","",""
"","355","image-keyboard-response","34","2.0.0","39342","p6xl036oqq0","bigger"," penguin","To test whether the real life ""size"" of items would effect the way they are determined on a computer screen.","","stimuli/1-Inongruent.jpg","m","","","","","right","m","true"
"","null","html-keyboard-response","35","2.0.0","40254","p6xl036oqq0","bigger"," penguin","To test whether the real life ""size"" of items would effect the way they are determined on a computer screen.","","<p>Correct!</p>","null","","","","","","",""
"","null","html-keyboard-response","36","2.0.0","41269","p6xl036oqq0","bigger"," penguin","To test whether the real life ""size"" of items would effect the way they are determined on a computer screen.","","<div style=""font-size:60px;"">+</div>","null","","","","","","",""
"","400","image-keyboard-response","37","2.0.0","41670","p6xl036oqq0","bigger"," penguin","To test whether the real life ""size"" of items would effect the way they are determined on a computer screen.","","stimuli/14-Congruent.jpg","z","","","","","left","z","true"
"","null","html-keyboard-response","38","2.0.0","42573","p6xl036oqq0","bigger"," penguin","To test whether the real life ""size"" of items would effect the way they are determined on a computer screen.","","<p>Correct!</p>","null","","","","","","",""
"","null","html-keyboard-response","39","2.0.0","43589","p6xl036oqq0","bigger"," penguin","To test whether the real life ""size"" of items would effect the way they are determined on a computer screen.","","<div style=""font-size:60px;"">+</div>","null","","","","","","",""
"","413","image-keyboard-response","40","2.0.0","44003","p6xl036oqq0","bigger"," penguin","To test whether the real life ""size"" of items would effect the way they are determined on a computer screen.","","stimuli/22-Congruent.jpg","z","","","","","left","z","true"
"","null","html-keyboard-response","41","2.0.0","44915","p6xl036oqq0","bigger"," penguin","To test whether the real life ""size"" of items would effect the way they are determined on a computer screen.","","<p>Correct!</p>","null","","","","","","",""
"","null","html-keyboard-response","42","2.0.0","45931","p6xl036oqq0","bigger"," penguin","To test whether the real life ""size"" of items would effect the way they are determined on a computer screen.","","<div style=""font-size:60px;"">+</div>","null","","","","","","",""
"","536","image-keyboard-response","43","2.0.0","46469","p6xl036oqq0","bigger"," penguin","To test whether the real life ""size"" of items would effect the way they are determined on a computer screen.","","stimuli/25-Congruent.jpg","z","","","","","left","z","true"
"","null","html-keyboard-response","44","2.0.0","47378","p6xl036oqq0","bigger"," penguin","To test whether the real life ""size"" of items would effect the way they are determined on a computer screen.","","<p>Correct!</p>","null","","","","","","",""
"","null","html-keyboard-response","45","2.0.0","48394","p6xl036oqq0","bigger"," penguin","To test whether the real life ""size"" of items would effect the way they are determined on a computer screen.","","<div style=""font-size:60px;"">+</div>","null","","","","","","",""
"","561","image-keyboard-response","46","2.0.0","48957","p6xl036oqq0","bigger"," penguin","To test whether the real life ""size"" of items would effect the way they are determined on a computer screen.","","stimuli/34-Congruent.jpg","z","","","","","left","z","true"
"","null","html-keyboard-response","47","2.0.0","49867","p6xl036oqq0","bigger"," penguin","To test whether the real life ""size"" of items would effect the way they are determined on a computer screen.","","<p>Correct!</p>","null","","","","","","",""
"","null","html-keyboard-response","48","2.0.0","50869","p6xl036oqq0","bigger"," penguin","To test whether the real life ""size"" of items would effect the way they are determined on a computer screen.","","<div style=""font-size:60px;"">+</div>","null","","","","","","",""
"","646","image-keyboard-response","49","2.0.0","51517","p6xl036oqq0","bigger"," penguin","To test whether the real life ""size"" of items would effect the way they are determined on a computer screen.","","stimuli/35-Congruent.jpg","z","","","","","left","z","true"
"","null","html-keyboard-response","50","2.0.0","52430","p6xl036oqq0","bigger"," penguin","To test whether the real life ""size"" of items would effect the way they are determined on a computer screen.","","<p>Correct!</p>","null","","","","","","",""
"","null","html-keyboard-response","51","2.0.0","53436","p6xl036oqq0","bigger"," penguin","To test whether the real life ""size"" of items would effect the way they are determined on a computer screen.","","<div style=""font-size:60px;"">+</div>","null","","","","","","",""
"","691","image-keyboard-response","52","2.0.0","54129","p6xl036oqq0","bigger"," penguin","To test whether the real life ""size"" of items would effect the way they are determined on a computer screen.","","stimuli/2-Inongruent.jpg","m","","","","","right","m","true"
"","null","html-keyboard-response","53","2.0.0","55042","p6xl036oqq0","bigger"," penguin","To test whether the real life ""size"" of items would effect the way they are determined on a computer screen.","","<p>Correct!</p>","null","","","","","","",""
"","null","html-keyboard-response","54","2.0.0","56058","p6xl036oqq0","bigger"," penguin","To test whether the real life ""size"" of items would effect the way they are determined on a computer screen.","","<div style=""font-size:60px;"">+</div>","null","","","","","","",""
"","524","image-keyboard-response","55","2.0.0","56584","p6xl036oqq0","bigger"," penguin","To test whether the real life ""size"" of items would effect the way they are determined on a computer screen.","","stimuli/17-Congruent.jpg","z","","","","","left","z","true"
"","null","html-keyboard-response","56","2.0.0","57494","p6xl036oqq0","bigger"," penguin","To test whether the real life ""size"" of items would effect the way they are determined on a computer screen.","","<p>Correct!</p>","null","","","","","","",""
"","null","html-keyboard-response","57","2.0.0","58510","p6xl036oqq0","bigger"," penguin","To test whether the real life ""size"" of items would effect the way they are determined on a computer screen.","","<div style=""font-size:60px;"">+</div>","null","","","","","","",""
"","582","image-keyboard-response","58","2.0.0","59094","p6xl036oqq0","bigger"," penguin","To test whether the real life ""size"" of items would effect the way they are determined on a computer screen.","","stimuli/3-Inongruent.jpg","m","","","","","right","m","true"
"","null","html-keyboard-response","59","2.0.0","60007","p6xl036oqq0","bigger"," penguin","To test whether the real life ""size"" of items would effect the way they are determined on a computer screen.","","<p>Correct!</p>","null","","","","","","",""
"","null","html-keyboard-response","60","2.0.0","61020","p6xl036oqq0","bigger"," penguin","To test whether the real life ""size"" of items would effect the way they are determined on a computer screen.","","<div style=""font-size:60px;"">+</div>","null","","","","","","",""
"","523","image-keyboard-response","61","2.0.0","61544","p6xl036oqq0","bigger"," penguin","To test whether the real life ""size"" of items would effect the way they are determined on a computer screen.","","stimuli/6-Inongruent.jpg","m","","","","","right","m","true"
"","null","html-keyboard-response","62","2.0.0","62452","p6xl036oqq0","bigger"," penguin","To test whether the real life ""size"" of items would effect the way they are determined on a computer screen.","","<p>Correct!</p>","null","","","","","","",""
"","null","html-keyboard-response","63","2.0.0","63469","p6xl036oqq0","bigger"," penguin","To test whether the real life ""size"" of items would effect the way they are determined on a computer screen.","","<div style=""font-size:60px;"">+</div>","null","","","","","","",""
"","495","image-keyboard-response","64","2.0.0","63965","p6xl036oqq0","bigger"," penguin","To test whether the real life ""size"" of items would effect the way they are determined on a computer screen.","","stimuli/17-Congruent.jpg","z","","","","","left","z","true"
"","null","html-keyboard-response","65","2.0.0","64874","p6xl036oqq0","bigger"," penguin","To test whether the real life ""size"" of items would effect the way they are determined on a computer screen.","","<p>Correct!</p>","null","","","","","","",""
"","null","html-keyboard-response","66","2.0.0","65888","p6xl036oqq0","bigger"," penguin","To test whether the real life ""size"" of items would effect the way they are determined on a computer screen.","","<div style=""font-size:60px;"">+</div>","null","","","","","","",""
"","1043","image-keyboard-response","67","2.0.0","66933","p6xl036oqq0","bigger"," penguin","To test whether the real life ""size"" of items would effect the way they are determined on a computer screen.","","stimuli/11-Congruent.jpg","z","","","","","left","z","true"
"","null","html-keyboard-response","68","2.0.0","67838","p6xl036oqq0","bigger"," penguin","To test whether the real life ""size"" of items would effect the way they are determined on a computer screen.","","<p>Correct!</p>","null","","","","","","",""
"","null","html-keyboard-response","69","2.0.0","68851","p6xl036oqq0","bigger"," penguin","To test whether the real life ""size"" of items would effect the way they are determined on a computer screen.","","<div style=""font-size:60px;"">+</div>","null","","","","","","",""
"","454","image-keyboard-response","70","2.0.0","69306","p6xl036oqq0","bigger"," penguin","To test whether the real life ""size"" of items would effect the way they are determined on a computer screen.","","stimuli/4-Inongruent.jpg","m","","","","","right","m","true"
"","null","html-keyboard-response","71","2.0.0","70223","p6xl036oqq0","bigger"," penguin","To test whether the real life ""size"" of items would effect the way they are determined on a computer screen.","","<p>Correct!</p>","null","","","","","","",""
"","null","html-keyboard-response","72","2.0.0","71236","p6xl036oqq0","bigger"," penguin","To test whether the real life ""size"" of items would effect the way they are determined on a computer screen.","","<div style=""font-size:60px;"">+</div>","null","","","","","","",""
"","466","image-keyboard-response","73","2.0.0","71703","p6xl036oqq0","bigger"," penguin","To test whether the real life ""size"" of items would effect the way they are determined on a computer screen.","","stimuli/18-Inongruent.jpg","m","","","","","right","m","true"
"","null","html-keyboard-response","74","2.0.0","72609","p6xl036oqq0","bigger"," penguin","To test whether the real life ""size"" of items would effect the way they are determined on a computer screen.","","<p>Correct!</p>","null","","","","","","",""
"","null","html-keyboard-response","75","2.0.0","73625","p6xl036oqq0","bigger"," penguin","To test whether the real life ""size"" of items would effect the way they are determined on a computer screen.","","<div style=""font-size:60px;"">+</div>","null","","","","","","",""
"","419","image-keyboard-response","76","2.0.0","74047","p6xl036oqq0","bigger"," penguin","To test whether the real life ""size"" of items would effect the way they are determined on a computer screen.","","stimuli/30-Congruent.jpg","z","","","","","left","z","true"
"","null","html-keyboard-response","77","2.0.0","74954","p6xl036oqq0","bigger"," penguin","To test whether the real life ""size"" of items would effect the way they are determined on a computer screen.","","<p>Correct!</p>","null","","","","","","",""
"","null","html-keyboard-response","78","2.0.0","75968","p6xl036oqq0","bigger"," penguin","To test whether the real life ""size"" of items would effect the way they are determined on a computer screen.","","<div style=""font-size:60px;"">+</div>","null","","","","","","",""
"","458","image-keyboard-response","79","2.0.0","76428","p6xl036oqq0","bigger"," penguin","To test whether the real life ""size"" of items would effect the way they are determined on a computer screen.","","stimuli/2-Congruent.jpg","z","","","","","left","z","true"
"","null","html-keyboard-response","80","2.0.0","77342","p6xl036oqq0","bigger"," penguin","To test whether the real life ""size"" of items would effect the way they are determined on a computer screen.","","<p>Correct!</p>","null","","","","","","",""
"","null","html-keyboard-response","81","2.0.0","78354","p6xl036oqq0","bigger"," penguin","To test whether the real life ""size"" of items would effect the way they are determined on a computer screen.","","<div style=""font-size:60px;"">+</div>","null","","","","","","",""
"","416","image-keyboard-response","82","2.0.0","78772","p6xl036oqq0","bigger"," penguin","To test whether the real life ""size"" of items would effect the way they are determined on a computer screen.","","stimuli/17-Inongruent.jpg","m","","","","","right","m","true"
"","null","html-keyboard-response","83","2.0.0","79683","p6xl036oqq0","bigger"," penguin","To test whether the real life ""size"" of items would effect the way they are determined on a computer screen.","","<p>Correct!</p>","null","","","","","","",""
"","null","html-keyboard-response","84","2.0.0","80689","p6xl036oqq0","bigger"," penguin","To test whether the real life ""size"" of items would effect the way they are determined on a computer screen.","","<div style=""font-size:60px;"">+</div>","null","","","","","","",""
"","423","image-keyboard-response","85","2.0.0","81113","p6xl036oqq0","bigger"," penguin","To test whether the real life ""size"" of items would effect the way they are determined on a computer screen.","","stimuli/35-Congruent.jpg","z","","","","","left","z","true"
"","null","html-keyboard-response","86","2.0.0","82019","p6xl036oqq0","bigger"," penguin","To test whether the real life ""size"" of items would effect the way they are determined on a computer screen.","","<p>Correct!</p>","null","","","","","","",""
"","null","html-keyboard-response","87","2.0.0","83034","p6xl036oqq0","bigger"," penguin","To test whether the real life ""size"" of items would effect the way they are determined on a computer screen.","","<div style=""font-size:60px;"">+</div>","null","","","","","","",""
"","369","image-keyboard-response","88","2.0.0","83405","p6xl036oqq0","bigger"," penguin","To test whether the real life ""size"" of items would effect the way they are determined on a computer screen.","","stimuli/5-Inongruent.jpg","m","","","","","right","m","true"
"","null","html-keyboard-response","89","2.0.0","84313","p6xl036oqq0","bigger"," penguin","To test whether the real life ""size"" of items would effect the way they are determined on a computer screen.","","<p>Correct!</p>","null","","","","","","",""
"","null","html-keyboard-response","90","2.0.0","85326","p6xl036oqq0","bigger"," penguin","To test whether the real life ""size"" of items would effect the way they are determined on a computer screen.","","<div style=""font-size:60px;"">+</div>","null","","","","","","",""
"","389","image-keyboard-response","91","2.0.0","85717","p6xl036oqq0","bigger"," penguin","To test whether the real life ""size"" of items would effect the way they are determined on a computer screen.","","stimuli/32-Congruent.jpg","z","","","","","left","z","true"
"","null","html-keyboard-response","92","2.0.0","86623","p6xl036oqq0","bigger"," penguin","To test whether the real life ""size"" of items would effect the way they are determined on a computer screen.","","<p>Correct!</p>","null","","","","","","",""
"","null","html-keyboard-response","93","2.0.0","87639","p6xl036oqq0","bigger"," penguin","To test whether the real life ""size"" of items would effect the way they are determined on a computer screen.","","<div style=""font-size:60px;"">+</div>","null","","","","","","",""
"","573","image-keyboard-response","94","2.0.0","88213","p6xl036oqq0","bigger"," penguin","To test whether the real life ""size"" of items would effect the way they are determined on a computer screen.","","stimuli/19-Inongruent.jpg","m","","","","","right","m","true"
"","null","html-keyboard-response","95","2.0.0","89121","p6xl036oqq0","bigger"," penguin","To test whether the real life ""size"" of items would effect the way they are determined on a computer screen.","","<p>Correct!</p>","null","","","","","","",""
"","null","html-keyboard-response","96","2.0.0","90134","p6xl036oqq0","bigger"," penguin","To test whether the real life ""size"" of items would effect the way they are determined on a computer screen.","","<div style=""font-size:60px;"">+</div>","null","","","","","","",""
"","443","image-keyboard-response","97","2.0.0","90579","p6xl036oqq0","bigger"," penguin","To test whether the real life ""size"" of items would effect the way they are determined on a computer screen.","","stimuli/1-Congruent.jpg","z","","","","","left","z","true"
"","null","html-keyboard-response","98","2.0.0","91491","p6xl036oqq0","bigger"," penguin","To test whether the real life ""size"" of items would effect the way they are determined on a computer screen.","","<p>Correct!</p>","null","","","","","","",""
"","null","html-keyboard-response","99","2.0.0","92507","p6xl036oqq0","bigger"," penguin","To test whether the real life ""size"" of items would effect the way they are determined on a computer screen.","","<div style=""font-size:60px;"">+</div>","null","","","","","","",""
"","414","image-keyboard-response","100","2.0.0","92923","p6xl036oqq0","bigger"," penguin","To test whether the real life ""size"" of items would effect the way they are determined on a computer screen.","","stimuli/11-Inongruent.jpg","m","","","","","right","m","true"
"","null","html-keyboard-response","101","2.0.0","93834","p6xl036oqq0","bigger"," penguin","To test whether the real life ""size"" of items would effect the way they are determined on a computer screen.","","<p>Correct!</p>","null","","","","","","",""
"","null","html-keyboard-response","102","2.0.0","94853","p6xl036oqq0","bigger"," penguin","To test whether the real life ""size"" of items would effect the way they are determined on a computer screen.","","<div style=""font-size:60px;"">+</div>","null","","","","","","",""
"","377","image-keyboard-response","103","2.0.0","95232","p6xl036oqq0","bigger"," penguin","To test whether the real life ""size"" of items would effect the way they are determined on a computer screen.","","stimuli/20-Congruent.jpg","z","","","","","left","z","true"
"","null","html-keyboard-response","104","2.0.0","96134","p6xl036oqq0","bigger"," penguin","To test whether the real life ""size"" of items would effect the way they are determined on a computer screen.","","<p>Correct!</p>","null","","","","","","",""
"","null","html-keyboard-response","105","2.0.0","97147","p6xl036oqq0","bigger"," penguin","To test whether the real life ""size"" of items would effect the way they are determined on a computer screen.","","<div style=""font-size:60px;"">+</div>","null","","","","","","",""
"","456","image-keyboard-response","106","2.0.0","97604","p6xl036oqq0","bigger"," penguin","To test whether the real life ""size"" of items would effect the way they are determined on a computer screen.","","stimuli/20-Congruent.jpg","z","","","","","left","z","true"
"","null","html-keyboard-response","107","2.0.0","98520","p6xl036oqq0","bigger"," penguin","To test whether the real life ""size"" of items would effect the way they are determined on a computer screen.","","<p>Correct!</p>","null","","","","","","",""
"","null","html-keyboard-response","108","2.0.0","99534","p6xl036oqq0","bigger"," penguin","To test whether the real life ""size"" of items would effect the way they are determined on a computer screen.","","<div style=""font-size:60px;"">+</div>","null","","","","","","",""
"","427","image-keyboard-response","109","2.0.0","99964","p6xl036oqq0","bigger"," penguin","To test whether the real life ""size"" of items would effect the way they are determined on a computer screen.","","stimuli/19-Congruent.jpg","z","","","","","left","z","true"
"","null","html-keyboard-response","110","2.0.0","100874","p6xl036oqq0","bigger"," penguin","To test whether the real life ""size"" of items would effect the way they are determined on a computer screen.","","<p>Correct!</p>","null","","","","","","",""
"","null","html-keyboard-response","111","2.0.0","101890","p6xl036oqq0","bigger"," penguin","To test whether the real life ""size"" of items would effect the way they are determined on a computer screen.","","<div style=""font-size:60px;"">+</div>","null","","","","","","",""
"","516","image-keyboard-response","112","2.0.0","102408","p6xl036oqq0","bigger"," penguin","To test whether the real life ""size"" of items would effect the way they are determined on a computer screen.","","stimuli/32-Inongruent.jpg","m","","","","","right","m","true"
"","null","html-keyboard-response","113","2.0.0","103323","p6xl036oqq0","bigger"," penguin","To test whether the real life ""size"" of items would effect the way they are determined on a computer screen.","","<p>Correct!</p>","null","","","","","","",""
"","null","html-keyboard-response","114","2.0.0","104337","p6xl036oqq0","bigger"," penguin","To test whether the real life ""size"" of items would effect the way they are determined on a computer screen.","","<div style=""font-size:60px;"">+</div>","null","","","","","","",""
"","703","image-keyboard-response","115","2.0.0","105041","p6xl036oqq0","bigger"," penguin","To test whether the real life ""size"" of items would effect the way they are determined on a computer screen.","","stimuli/25-Inongruent.jpg","m","","","","","right","m","true"
"","null","html-keyboard-response","116","2.0.0","105945","p6xl036oqq0","bigger"," penguin","To test whether the real life ""size"" of items would effect the way they are determined on a computer screen.","","<p>Correct!</p>","null","","","","","","",""
"","null","html-keyboard-response","117","2.0.0","106959","p6xl036oqq0","bigger"," penguin","To test whether the real life ""size"" of items would effect the way they are determined on a computer screen.","","<div style=""font-size:60px;"">+</div>","null","","","","","","",""
"","601","image-keyboard-response","118","2.0.0","107564","p6xl036oqq0","bigger"," penguin","To test whether the real life ""size"" of items would effect the way they are determined on a computer screen.","","stimuli/12-Inongruent.jpg","m","","","","","right","m","true"
"","null","html-keyboard-response","119","2.0.0","108474","p6xl036oqq0","bigger"," penguin","To test whether the real life ""size"" of items would effect the way they are determined on a computer screen.","","<p>Correct!</p>","null","","","","","","",""
"","null","html-keyboard-response","120","2.0.0","109488","p6xl036oqq0","bigger"," penguin","To test whether the real life ""size"" of items would effect the way they are determined on a computer screen.","","<div style=""font-size:60px;"">+</div>","null","","","","","","",""
"","471","image-keyboard-response","121","2.0.0","109960","p6xl036oqq0","bigger"," penguin","To test whether the real life ""size"" of items would effect the way they are determined on a computer screen.","","stimuli/28-Inongruent.jpg","m","","","","","right","m","true"
"","null","html-keyboard-response","122","2.0.0","110865","p6xl036oqq0","bigger"," penguin","To test whether the real life ""size"" of items would effect the way they are determined on a computer screen.","","<p>Correct!</p>","null","","","","","","",""
"","null","html-keyboard-response","123","2.0.0","111882","p6xl036oqq0","bigger"," penguin","To test whether the real life ""size"" of items would effect the way they are determined on a computer screen.","","<div style=""font-size:60px;"">+</div>","null","","","","","","",""
"","465","image-keyboard-response","124","2.0.0","112349","p6xl036oqq0","bigger"," penguin","To test whether the real life ""size"" of items would effect the way they are determined on a computer screen.","","stimuli/19-Inongruent.jpg","m","","","","","right","m","true"
"","null","html-keyboard-response","125","2.0.0","113256","p6xl036oqq0","bigger"," penguin","To test whether the real life ""size"" of items would effect the way they are determined on a computer screen.","","<p>Correct!</p>","null","","","","","","",""
"","null","html-keyboard-response","126","2.0.0","114257","p6xl036oqq0","bigger"," penguin","To test whether the real life ""size"" of items would effect the way they are determined on a computer screen.","","<div style=""font-size:60px;"">+</div>","null","","","","","","",""
"","440","image-keyboard-response","127","2.0.0","114698","p6xl036oqq0","bigger"," penguin","To test whether the real life ""size"" of items would effect the way they are determined on a computer screen.","","stimuli/26-Inongruent.jpg","m","","","","","right","m","true"
"","null","html-keyboard-response","128","2.0.0","115600","p6xl036oqq0","bigger"," penguin","To test whether the real life ""size"" of items would effect the way they are determined on a computer screen.","","<p>Correct!</p>","null","","","","","","",""
"","null","html-keyboard-response","129","2.0.0","116607","p6xl036oqq0","bigger"," penguin","To test whether the real life ""size"" of items would effect the way they are determined on a computer screen.","","<div style=""font-size:60px;"">+</div>","null","","","","","","",""
"","593","image-keyboard-response","130","2.0.0","117201","p6xl036oqq0","bigger"," penguin","To test whether the real life ""size"" of items would effect the way they are determined on a computer screen.","","stimuli/33-Congruent.jpg","z","","","","","left","z","true"
"","null","html-keyboard-response","131","2.0.0","118104","p6xl036oqq0","bigger"," penguin","To test whether the real life ""size"" of items would effect the way they are determined on a computer screen.","","<p>Correct!</p>","null","","","","","","",""
"","null","html-keyboard-response","132","2.0.0","119107","p6xl036oqq0","bigger"," penguin","To test whether the real life ""size"" of items would effect the way they are determined on a computer screen.","","<div style=""font-size:60px;"">+</div>","null","","","","","","",""
"","554","image-keyboard-response","133","2.0.0","119662","p6xl036oqq0","bigger"," penguin","To test whether the real life ""size"" of items would effect the way they are determined on a computer screen.","","stimuli/3-Congruent.jpg","z","","","","","left","z","true"
"","null","html-keyboard-response","134","2.0.0","120568","p6xl036oqq0","bigger"," penguin","To test whether the real life ""size"" of items would effect the way they are determined on a computer screen.","","<p>Correct!</p>","null","","","","","","",""
"","null","html-keyboard-response","135","2.0.0","121585","p6xl036oqq0","bigger"," penguin","To test whether the real life ""size"" of items would effect the way they are determined on a computer screen.","","<div style=""font-size:60px;"">+</div>","null","","","","","","",""
"","394","image-keyboard-response","136","2.0.0","121979","p6xl036oqq0","bigger"," penguin","To test whether the real life ""size"" of items would effect the way they are determined on a computer screen.","","stimuli/34-Inongruent.jpg","m","","","","","right","m","true"
"","null","html-keyboard-response","137","2.0.0","122897","p6xl036oqq0","bigger"," penguin","To test whether the real life ""size"" of items would effect the way they are determined on a computer screen.","","<p>Correct!</p>","null","","","","","","",""
"","null","html-keyboard-response","138","2.0.0","123910","p6xl036oqq0","bigger"," penguin","To test whether the real life ""size"" of items would effect the way they are determined on a computer screen.","","<div style=""font-size:60px;"">+</div>","null","","","","","","",""
"","604","image-keyboard-response","139","2.0.0","124515","p6xl036oqq0","bigger"," penguin","To test whether the real life ""size"" of items would effect the way they are determined on a computer screen.","","stimuli/30-Inongruent.jpg","m","","","","","right","m","true"
"","null","html-keyboard-response","140","2.0.0","125420","p6xl036oqq0","bigger"," penguin","To test whether the real life ""size"" of items would effect the way they are determined on a computer screen.","","<p>Correct!</p>","null","","","","","","",""
"","null","html-keyboard-response","141","2.0.0","126436","p6xl036oqq0","bigger"," penguin","To test whether the real life ""size"" of items would effect the way they are determined on a computer screen.","","<div style=""font-size:60px;"">+</div>","null","","","","","","",""
"","661","image-keyboard-response","142","2.0.0","127098","p6xl036oqq0","bigger"," penguin","To test whether the real life ""size"" of items would effect the way they are determined on a computer screen.","","stimuli/21-Congruent.jpg","z","","","","","left","z","true"
"","null","html-keyboard-response","143","2.0.0","128012","p6xl036oqq0","bigger"," penguin","To test whether the real life ""size"" of items would effect the way they are determined on a computer screen.","","<p>Correct!</p>","null","","","","","","",""
"","null","html-keyboard-response","144","2.0.0","129023","p6xl036oqq0","bigger"," penguin","To test whether the real life ""size"" of items would effect the way they are determined on a computer screen.","","<div style=""font-size:60px;"">+</div>","null","","","","","","",""
"","491","image-keyboard-response","145","2.0.0","129515","p6xl036oqq0","bigger"," penguin","To test whether the real life ""size"" of items would effect the way they are determined on a computer screen.","","stimuli/32-Inongruent.jpg","m","","","","","right","m","true"
"","null","html-keyboard-response","146","2.0.0","130425","p6xl036oqq0","bigger"," penguin","To test whether the real life ""size"" of items would effect the way they are determined on a computer screen.","","<p>Correct!</p>","null","","","","","","",""
"","null","html-keyboard-response","147","2.0.0","131439","p6xl036oqq0","bigger"," penguin","To test whether the real life ""size"" of items would effect the way they are determined on a computer screen.","","<div style=""font-size:60px;"">+</div>","null","","","","","","",""
"","502","image-keyboard-response","148","2.0.0","131942","p6xl036oqq0","bigger"," penguin","To test whether the real life ""size"" of items would effect the way they are determined on a computer screen.","","stimuli/11-Inongruent.jpg","m","","","","","right","m","true"
"","null","html-keyboard-response","149","2.0.0","132859","p6xl036oqq0","bigger"," penguin","To test whether the real life ""size"" of items would effect the way they are determined on a computer screen.","","<p>Correct!</p>","null","","","","","","",""
"","null","html-keyboard-response","150","2.0.0","133871","p6xl036oqq0","bigger"," penguin","To test whether the real life ""size"" of items would effect the way they are determined on a computer screen.","","<div style=""font-size:60px;"">+</div>","null","","","","","","",""
"","774","image-keyboard-response","151","2.0.0","134646","p6xl036oqq0","bigger"," penguin","To test whether the real life ""size"" of items would effect the way they are determined on a computer screen.","","stimuli/30-Inongruent.jpg","m","","","","","right","m","true"
"","null","html-keyboard-response","152","2.0.0","135556","p6xl036oqq0","bigger"," penguin","To test whether the real life ""size"" of items would effect the way they are determined on a computer screen.","","<p>Correct!</p>","null","","","","","","",""
"","null","html-keyboard-response","153","2.0.0","136568","p6xl036oqq0","bigger"," penguin","To test whether the real life ""size"" of items would effect the way they are determined on a computer screen.","","<div style=""font-size:60px;"">+</div>","null","","","","","","",""
"","560","image-keyboard-response","154","2.0.0","137129","p6xl036oqq0","bigger"," penguin","To test whether the real life ""size"" of items would effect the way they are determined on a computer screen.","","stimuli/26-Congruent.jpg","z","","","","","left","z","true"
"","null","html-keyboard-response","155","2.0.0","138034","p6xl036oqq0","bigger"," penguin","To test whether the real life ""size"" of items would effect the way they are determined on a computer screen.","","<p>Correct!</p>","null","","","","","","",""
"","null","html-keyboard-response","156","2.0.0","139046","p6xl036oqq0","bigger"," penguin","To test whether the real life ""size"" of items would effect the way they are determined on a computer screen.","","<div style=""font-size:60px;"">+</div>","null","","","","","","",""
"","586","image-keyboard-response","157","2.0.0","139633","p6xl036oqq0","bigger"," penguin","To test whether the real life ""size"" of items would effect the way they are determined on a computer screen.","","stimuli/27-Congruent.jpg","z","","","","","left","z","true"
"","null","html-keyboard-response","158","2.0.0","140546","p6xl036oqq0","bigger"," penguin","To test whether the real life ""size"" of items would effect the way they are determined on a computer screen.","","<p>Correct!</p>","null","","","","","","",""
"","null","html-keyboard-response","159","2.0.0","141558","p6xl036oqq0","bigger"," penguin","To test whether the real life ""size"" of items would effect the way they are determined on a computer screen.","","<div style=""font-size:60px;"">+</div>","null","","","","","","",""
"","569","image-keyboard-response","160","2.0.0","142129","p6xl036oqq0","bigger"," penguin","To test whether the real life ""size"" of items would effect the way they are determined on a computer screen.","","stimuli/16-Congruent.jpg","z","","","","","left","z","true"
"","null","html-keyboard-response","161","2.0.0","143043","p6xl036oqq0","bigger"," penguin","To test whether the real life ""size"" of items would effect the way they are determined on a computer screen.","","<p>Correct!</p>","null","","","","","","",""
"","null","html-keyboard-response","162","2.0.0","144057","p6xl036oqq0","bigger"," penguin","To test whether the real life ""size"" of items would effect the way they are determined on a computer screen.","","<div style=""font-size:60px;"">+</div>","null","","","","","","",""
"","520","image-keyboard-response","163","2.0.0","144577","p6xl036oqq0","bigger"," penguin","To test whether the real life ""size"" of items would effect the way they are determined on a computer screen.","","stimuli/21-Inongruent.jpg","m","","","","","right","m","true"
"","null","html-keyboard-response","164","2.0.0","145492","p6xl036oqq0","bigger"," penguin","To test whether the real life ""size"" of items would effect the way they are determined on a computer screen.","","<p>Correct!</p>","null","","","","","","",""
"","null","html-keyboard-response","165","2.0.0","146504","p6xl036oqq0","bigger"," penguin","To test whether the real life ""size"" of items would effect the way they are determined on a computer screen.","","<div style=""font-size:60px;"">+</div>","null","","","","","","",""
"","349","image-keyboard-response","166","2.0.0","146853","p6xl036oqq0","bigger"," penguin","To test whether the real life ""size"" of items would effect the way they are determined on a computer screen.","","stimuli/22-Congruent.jpg","z","","","","","left","z","true"
"","null","html-keyboard-response","167","2.0.0","147756","p6xl036oqq0","bigger"," penguin","To test whether the real life ""size"" of items would effect the way they are determined on a computer screen.","","<p>Correct!</p>","null","","","","","","",""
"","null","html-keyboard-response","168","2.0.0","148770","p6xl036oqq0","bigger"," penguin","To test whether the real life ""size"" of items would effect the way they are determined on a computer screen.","","<div style=""font-size:60px;"">+</div>","null","","","","","","",""
"","524","image-keyboard-response","169","2.0.0","149294","p6xl036oqq0","bigger"," penguin","To test whether the real life ""size"" of items would effect the way they are determined on a computer screen.","","stimuli/21-Congruent.jpg","z","","","","","left","z","true"
"","null","html-keyboard-response","170","2.0.0","150201","p6xl036oqq0","bigger"," penguin","To test whether the real life ""size"" of items would effect the way they are determined on a computer screen.","","<p>Correct!</p>","null","","","","","","",""
"","null","html-keyboard-response","171","2.0.0","151212","p6xl036oqq0","bigger"," penguin","To test whether the real life ""size"" of items would effect the way they are determined on a computer screen.","","<div style=""font-size:60px;"">+</div>","null","","","","","","",""
"","446","image-keyboard-response","172","2.0.0","151658","p6xl036oqq0","bigger"," penguin","To test whether the real life ""size"" of items would effect the way they are determined on a computer screen.","","stimuli/3-Inongruent.jpg","m","","","","","right","m","true"
"","null","html-keyboard-response","173","2.0.0","152572","p6xl036oqq0","bigger"," penguin","To test whether the real life ""size"" of items would effect the way they are determined on a computer screen.","","<p>Correct!</p>","null","","","","","","",""
"","null","html-keyboard-response","174","2.0.0","153583","p6xl036oqq0","bigger"," penguin","To test whether the real life ""size"" of items would effect the way they are determined on a computer screen.","","<div style=""font-size:60px;"">+</div>","null","","","","","","",""
"","465","image-keyboard-response","175","2.0.0","154050","p6xl036oqq0","bigger"," penguin","To test whether the real life ""size"" of items would effect the way they are determined on a computer screen.","","stimuli/24-Congruent.jpg","z","","","","","left","z","true"
"","null","html-keyboard-response","176","2.0.0","154951","p6xl036oqq0","bigger"," penguin","To test whether the real life ""size"" of items would effect the way they are determined on a computer screen.","","<p>Correct!</p>","null","","","","","","",""
"","null","html-keyboard-response","177","2.0.0","155961","p6xl036oqq0","bigger"," penguin","To test whether the real life ""size"" of items would effect the way they are determined on a computer screen.","","<div style=""font-size:60px;"">+</div>","null","","","","","","",""
"","504","image-keyboard-response","178","2.0.0","156466","p6xl036oqq0","bigger"," penguin","To test whether the real life ""size"" of items would effect the way they are determined on a computer screen.","","stimuli/6-Inongruent.jpg","m","","","","","right","m","true"
"","null","html-keyboard-response","179","2.0.0","157377","p6xl036oqq0","bigger"," penguin","To test whether the real life ""size"" of items would effect the way they are determined on a computer screen.","","<p>Correct!</p>","null","","","","","","",""
"","null","html-keyboard-response","180","2.0.0","158391","p6xl036oqq0","bigger"," penguin","To test whether the real life ""size"" of items would effect the way they are determined on a computer screen.","","<div style=""font-size:60px;"">+</div>","null","","","","","","",""
"","538","image-keyboard-response","181","2.0.0","158929","p6xl036oqq0","bigger"," penguin","To test whether the real life ""size"" of items would effect the way they are determined on a computer screen.","","stimuli/34-Congruent.jpg","z","","","","","left","z","true"
"","null","html-keyboard-response","182","2.0.0","159837","p6xl036oqq0","bigger"," penguin","To test whether the real life ""size"" of items would effect the way they are determined on a computer screen.","","<p>Correct!</p>","null","","","","","","",""
"","null","html-keyboard-response","183","2.0.0","160849","p6xl036oqq0","bigger"," penguin","To test whether the real life ""size"" of items would effect the way they are determined on a computer screen.","","<div style=""font-size:60px;"">+</div>","null","","","","","","",""
"","399","image-keyboard-response","184","2.0.0","161249","p6xl036oqq0","bigger"," penguin","To test whether the real life ""size"" of items would effect the way they are determined on a computer screen.","","stimuli/25-Inongruent.jpg","m","","","","","right","m","true"
"","null","html-keyboard-response","185","2.0.0","162156","p6xl036oqq0","bigger"," penguin","To test whether the real life ""size"" of items would effect the way they are determined on a computer screen.","","<p>Correct!</p>","null","","","","","","",""
"","null","html-keyboard-response","186","2.0.0","163168","p6xl036oqq0","bigger"," penguin","To test whether the real life ""size"" of items would effect the way they are determined on a computer screen.","","<div style=""font-size:60px;"">+</div>","null","","","","","","",""
"","486","image-keyboard-response","187","2.0.0","163655","p6xl036oqq0","bigger"," penguin","To test whether the real life ""size"" of items would effect the way they are determined on a computer screen.","","stimuli/29-Inongruent.jpg","m","","","","","right","m","true"
"","null","html-keyboard-response","188","2.0.0","164569","p6xl036oqq0","bigger"," penguin","To test whether the real life ""size"" of items would effect the way they are determined on a computer screen.","","<p>Correct!</p>","null","","","","","","",""
"","null","html-keyboard-response","189","2.0.0","165582","p6xl036oqq0","bigger"," penguin","To test whether the real life ""size"" of items would effect the way they are determined on a computer screen.","","<div style=""font-size:60px;"">+</div>","null","","","","","","",""
"","530","image-keyboard-response","190","2.0.0","166113","p6xl036oqq0","bigger"," penguin","To test whether the real life ""size"" of items would effect the way they are determined on a computer screen.","","stimuli/13-Congruent.jpg","z","","","","","left","z","true"
"","null","html-keyboard-response","191","2.0.0","167029","p6xl036oqq0","bigger"," penguin","To test whether the real life ""size"" of items would effect the way they are determined on a computer screen.","","<p>Correct!</p>","null","","","","","","",""
"","null","html-keyboard-response","192","2.0.0","168043","p6xl036oqq0","bigger"," penguin","To test whether the real life ""size"" of items would effect the way they are determined on a computer screen.","","<div style=""font-size:60px;"">+</div>","null","","","","","","",""
"","540","image-keyboard-response","193","2.0.0","168584","p6xl036oqq0","bigger"," penguin","To test whether the real life ""size"" of items would effect the way they are determined on a computer screen.","","stimuli/22-Inongruent.jpg","m","","","","","right","m","true"
"","null","html-keyboard-response","194","2.0.0","169491","p6xl036oqq0","bigger"," penguin","To test whether the real life ""size"" of items would effect the way they are determined on a computer screen.","","<p>Correct!</p>","null","","","","","","",""
"","null","html-keyboard-response","195","2.0.0","170501","p6xl036oqq0","bigger"," penguin","To test whether the real life ""size"" of items would effect the way they are determined on a computer screen.","","<div style=""font-size:60px;"">+</div>","null","","","","","","",""
"","904","image-keyboard-response","196","2.0.0","171407","p6xl036oqq0","bigger"," penguin","To test whether the real life ""size"" of items would effect the way they are determined on a computer screen.","","stimuli/26-Inongruent.jpg","m","","","","","right","m","true"
"","null","html-keyboard-response","197","2.0.0","172322","p6xl036oqq0","bigger"," penguin","To test whether the real life ""size"" of items would effect the way they are determined on a computer screen.","","<p>Correct!</p>","null","","","","","","",""
"","null","html-keyboard-response","198","2.0.0","173337","p6xl036oqq0","bigger"," penguin","To test whether the real life ""size"" of items would effect the way they are determined on a computer screen.","","<div style=""font-size:60px;"">+</div>","null","","","","","","",""
"","717","image-keyboard-response","199","2.0.0","174054","p6xl036oqq0","bigger"," penguin","To test whether the real life ""size"" of items would effect the way they are determined on a computer screen.","","stimuli/15-Congruent.jpg","z","","","","","left","z","true"
"","null","html-keyboard-response","200","2.0.0","174957","p6xl036oqq0","bigger"," penguin","To test whether the real life ""size"" of items would effect the way they are determined on a computer screen.","","<p>Correct!</p>","null","","","","","","",""
"","null","html-keyboard-response","201","2.0.0","175962","p6xl036oqq0","bigger"," penguin","To test whether the real life ""size"" of items would effect the way they are determined on a computer screen.","","<div style=""font-size:60px;"">+</div>","null","","","","","","",""
"","628","image-keyboard-response","202","2.0.0","176590","p6xl036oqq0","bigger"," penguin","To test whether the real life ""size"" of items would effect the way they are determined on a computer screen.","","stimuli/26-Congruent.jpg","z","","","","","left","z","true"
"","null","html-keyboard-response","203","2.0.0","177506","p6xl036oqq0","bigger"," penguin","To test whether the real life ""size"" of items would effect the way they are determined on a computer screen.","","<p>Correct!</p>","null","","","","","","",""
"","null","html-keyboard-response","204","2.0.0","178521","p6xl036oqq0","bigger"," penguin","To test whether the real life ""size"" of items would effect the way they are determined on a computer screen.","","<div style=""font-size:60px;"">+</div>","null","","","","","","",""
"","469","image-keyboard-response","205","2.0.0","178991","p6xl036oqq0","bigger"," penguin","To test whether the real life ""size"" of items would effect the way they are determined on a computer screen.","","stimuli/31-Congruent.jpg","z","","","","","left","z","true"
"","null","html-keyboard-response","206","2.0.0","179904","p6xl036oqq0","bigger"," penguin","To test whether the real life ""size"" of items would effect the way they are determined on a computer screen.","","<p>Correct!</p>","null","","","","","","",""
"","null","html-keyboard-response","207","2.0.0","180920","p6xl036oqq0","bigger"," penguin","To test whether the real life ""size"" of items would effect the way they are determined on a computer screen.","","<div style=""font-size:60px;"">+</div>","null","","","","","","",""
"","454","image-keyboard-response","208","2.0.0","181375","p6xl036oqq0","bigger"," penguin","To test whether the real life ""size"" of items would effect the way they are determined on a computer screen.","","stimuli/13-Inongruent.jpg","m","","","","","right","m","true"
"","null","html-keyboard-response","209","2.0.0","182279","p6xl036oqq0","bigger"," penguin","To test whether the real life ""size"" of items would effect the way they are determined on a computer screen.","","<p>Correct!</p>","null","","","","","","",""
"","null","html-keyboard-response","210","2.0.0","183291","p6xl036oqq0","bigger"," penguin","To test whether the real life ""size"" of items would effect the way they are determined on a computer screen.","","<div style=""font-size:60px;"">+</div>","null","","","","","","",""
"","450","image-keyboard-response","211","2.0.0","183742","p6xl036oqq0","bigger"," penguin","To test whether the real life ""size"" of items would effect the way they are determined on a computer screen.","","stimuli/27-Inongruent.jpg","m","","","","","right","m","true"
"","null","html-keyboard-response","212","2.0.0","184655","p6xl036oqq0","bigger"," penguin","To test whether the real life ""size"" of items would effect the way they are determined on a computer screen.","","<p>Correct!</p>","null","","","","","","",""
"","null","html-keyboard-response","213","2.0.0","185657","p6xl036oqq0","bigger"," penguin","To test whether the real life ""size"" of items would effect the way they are determined on a computer screen.","","<div style=""font-size:60px;"">+</div>","null","","","","","","",""
"","444","image-keyboard-response","214","2.0.0","186101","p6xl036oqq0","bigger"," penguin","To test whether the real life ""size"" of items would effect the way they are determined on a computer screen.","","stimuli/10-Congruent.jpg","z","","","","","left","z","true"
"","null","html-keyboard-response","215","2.0.0","187002","p6xl036oqq0","bigger"," penguin","To test whether the real life ""size"" of items would effect the way they are determined on a computer screen.","","<p>Correct!</p>","null","","","","","","",""
"","null","html-keyboard-response","216","2.0.0","188018","p6xl036oqq0","bigger"," penguin","To test whether the real life ""size"" of items would effect the way they are determined on a computer screen.","","<div style=""font-size:60px;"">+</div>","null","","","","","","",""
"","430","image-keyboard-response","217","2.0.0","188448","p6xl036oqq0","bigger"," penguin","To test whether the real life ""size"" of items would effect the way they are determined on a computer screen.","","stimuli/2-Congruent.jpg","z","","","","","left","z","true"
"","null","html-keyboard-response","218","2.0.0","189363","p6xl036oqq0","bigger"," penguin","To test whether the real life ""size"" of items would effect the way they are determined on a computer screen.","","<p>Correct!</p>","null","","","","","","",""
"","null","html-keyboard-response","219","2.0.0","190377","p6xl036oqq0","bigger"," penguin","To test whether the real life ""size"" of items would effect the way they are determined on a computer screen.","","<div style=""font-size:60px;"">+</div>","null","","","","","","",""
"","768","image-keyboard-response","220","2.0.0","191147","p6xl036oqq0","bigger"," penguin","To test whether the real life ""size"" of items would effect the way they are determined on a computer screen.","","stimuli/36-Inongruent.jpg","m","","","","","right","m","true"
"","null","html-keyboard-response","221","2.0.0","192048","p6xl036oqq0","bigger"," penguin","To test whether the real life ""size"" of items would effect the way they are determined on a computer screen.","","<p>Correct!</p>","null","","","","","","",""
"","null","html-keyboard-response","222","2.0.0","193057","p6xl036oqq0","bigger"," penguin","To test whether the real life ""size"" of items would effect the way they are determined on a computer screen.","","<div style=""font-size:60px;"">+</div>","null","","","","","","",""
"","482","image-keyboard-response","223","2.0.0","193540","p6xl036oqq0","bigger"," penguin","To test whether the real life ""size"" of items would effect the way they are determined on a computer screen.","","stimuli/1-Inongruent.jpg","m","","","","","right","m","true"
"","null","html-keyboard-response","224","2.0.0","194447","p6xl036oqq0","bigger"," penguin","To test whether the real life ""size"" of items would effect the way they are determined on a computer screen.","","<p>Correct!</p>","null","","","","","","",""
"","null","html-keyboard-response","225","2.0.0","195459","p6xl036oqq0","bigger"," penguin","To test whether the real life ""size"" of items would effect the way they are determined on a computer screen.","","<div style=""font-size:60px;"">+</div>","null","","","","","","",""
"","408","image-keyboard-response","226","2.0.0","195868","p6xl036oqq0","bigger"," penguin","To test whether the real life ""size"" of items would effect the way they are determined on a computer screen.","","stimuli/7-Inongruent.jpg","m","","","","","right","m","true"
"","null","html-keyboard-response","227","2.0.0","196770","p6xl036oqq0","bigger"," penguin","To test whether the real life ""size"" of items would effect the way they are determined on a computer screen.","","<p>Correct!</p>","null","","","","","","",""
"","null","html-keyboard-response","228","2.0.0","197781","p6xl036oqq0","bigger"," penguin","To test whether the real life ""size"" of items would effect the way they are determined on a computer screen.","","<div style=""font-size:60px;"">+</div>","null","","","","","","",""
"","449","image-keyboard-response","229","2.0.0","198230","p6xl036oqq0","bigger"," penguin","To test whether the real life ""size"" of items would effect the way they are determined on a computer screen.","","stimuli/16-Inongruent.jpg","m","","","","","right","m","true"
"","null","html-keyboard-response","230","2.0.0","199138","p6xl036oqq0","bigger"," penguin","To test whether the real life ""size"" of items would effect the way they are determined on a computer screen.","","<p>Correct!</p>","null","","","","","","",""
"","null","html-keyboard-response","231","2.0.0","200146","p6xl036oqq0","bigger"," penguin","To test whether the real life ""size"" of items would effect the way they are determined on a computer screen.","","<div style=""font-size:60px;"">+</div>","null","","","","","","",""
"","445","image-keyboard-response","232","2.0.0","200592","p6xl036oqq0","bigger"," penguin","To test whether the real life ""size"" of items would effect the way they are determined on a computer screen.","","stimuli/36-Congruent.jpg","z","","","","","left","z","true"
"","null","html-keyboard-response","233","2.0.0","201505","p6xl036oqq0","bigger"," penguin","To test whether the real life ""size"" of items would effect the way they are determined on a computer screen.","","<p>Correct!</p>","null","","","","","","",""
"","null","html-keyboard-response","234","2.0.0","202514","p6xl036oqq0","bigger"," penguin","To test whether the real life ""size"" of items would effect the way they are determined on a computer screen.","","<div style=""font-size:60px;"">+</div>","null","","","","","","",""
"","704","image-keyboard-response","235","2.0.0","203219","p6xl036oqq0","bigger"," penguin","To test whether the real life ""size"" of items would effect the way they are determined on a computer screen.","","stimuli/12-Inongruent.jpg","m","","","","","right","m","true"
"","null","html-keyboard-response","236","2.0.0","204126","p6xl036oqq0","bigger"," penguin","To test whether the real life ""size"" of items would effect the way they are determined on a computer screen.","","<p>Correct!</p>","null","","","","","","",""
"","null","html-keyboard-response","237","2.0.0","205141","p6xl036oqq0","bigger"," penguin","To test whether the real life ""size"" of items would effect the way they are determined on a computer screen.","","<div style=""font-size:60px;"">+</div>","null","","","","","","",""
"","491","image-keyboard-response","238","2.0.0","205632","p6xl036oqq0","bigger"," penguin","To test whether the real life ""size"" of items would effect the way they are determined on a computer screen.","","stimuli/9-Inongruent.jpg","m","","","","","right","m","true"
"","null","html-keyboard-response","239","2.0.0","206548","p6xl036oqq0","bigger"," penguin","To test whether the real life ""size"" of items would effect the way they are determined on a computer screen.","","<p>Correct!</p>","null","","","","","","",""
"","null","html-keyboard-response","240","2.0.0","207559","p6xl036oqq0","bigger"," penguin","To test whether the real life ""size"" of items would effect the way they are determined on a computer screen.","","<div style=""font-size:60px;"">+</div>","null","","","","","","",""
"","650","image-keyboard-response","241","2.0.0","208210","p6xl036oqq0","bigger"," penguin","To test whether the real life ""size"" of items would effect the way they are determined on a computer screen.","","stimuli/31-Inongruent.jpg","m","","","","","right","m","true"
"","null","html-keyboard-response","242","2.0.0","209126","p6xl036oqq0","bigger"," penguin","To test whether the real life ""size"" of items would effect the way they are determined on a computer screen.","","<p>Correct!</p>","null","","","","","","",""
"","null","html-keyboard-response","243","2.0.0","210142","p6xl036oqq0","bigger"," penguin","To test whether the real life ""size"" of items would effect the way they are determined on a computer screen.","","<div style=""font-size:60px;"">+</div>","null","","","","","","",""
"","476","image-keyboard-response","244","2.0.0","210618","p6xl036oqq0","bigger"," penguin","To test whether the real life ""size"" of items would effect the way they are determined on a computer screen.","","stimuli/5-Inongruent.jpg","m","","","","","right","m","true"
"","null","html-keyboard-response","245","2.0.0","211528","p6xl036oqq0","bigger"," penguin","To test whether the real life ""size"" of items would effect the way they are determined on a computer screen.","","<p>Correct!</p>","null","","","","","","",""
"","null","html-keyboard-response","246","2.0.0","212536","p6xl036oqq0","bigger"," penguin","To test whether the real life ""size"" of items would effect the way they are determined on a computer screen.","","<div style=""font-size:60px;"">+</div>","null","","","","","","",""
"","546","image-keyboard-response","247","2.0.0","213083","p6xl036oqq0","bigger"," penguin","To test whether the real life ""size"" of items would effect the way they are determined on a computer screen.","","stimuli/24-Congruent.jpg","z","","","","","left","z","true"
"","null","html-keyboard-response","248","2.0.0","213997","p6xl036oqq0","bigger"," penguin","To test whether the real life ""size"" of items would effect the way they are determined on a computer screen.","","<p>Correct!</p>","null","","","","","","",""
"","null","html-keyboard-response","249","2.0.0","215010","p6xl036oqq0","bigger"," penguin","To test whether the real life ""size"" of items would effect the way they are determined on a computer screen.","","<div style=""font-size:60px;"">+</div>","null","","","","","","",""
"","733","image-keyboard-response","250","2.0.0","215743","p6xl036oqq0","bigger"," penguin","To test whether the real life ""size"" of items would effect the way they are determined on a computer screen.","","stimuli/9-Inongruent.jpg","m","","","","","right","m","true"
"","null","html-keyboard-response","251","2.0.0","216658","p6xl036oqq0","bigger"," penguin","To test whether the real life ""size"" of items would effect the way they are determined on a computer screen.","","<p>Correct!</p>","null","","","","","","",""
"","null","html-keyboard-response","252","2.0.0","217666","p6xl036oqq0","bigger"," penguin","To test whether the real life ""size"" of items would effect the way they are determined on a computer screen.","","<div style=""font-size:60px;"">+</div>","null","","","","","","",""
"","471","image-keyboard-response","253","2.0.0","218138","p6xl036oqq0","bigger"," penguin","To test whether the real life ""size"" of items would effect the way they are determined on a computer screen.","","stimuli/16-Inongruent.jpg","m","","","","","right","m","true"
"","null","html-keyboard-response","254","2.0.0","219048","p6xl036oqq0","bigger"," penguin","To test whether the real life ""size"" of items would effect the way they are determined on a computer screen.","","<p>Correct!</p>","null","","","","","","",""
"","null","html-keyboard-response","255","2.0.0","220057","p6xl036oqq0","bigger"," penguin","To test whether the real life ""size"" of items would effect the way they are determined on a computer screen.","","<div style=""font-size:60px;"">+</div>","null","","","","","","",""
"","496","image-keyboard-response","256","2.0.0","220554","p6xl036oqq0","bigger"," penguin","To test whether the real life ""size"" of items would effect the way they are determined on a computer screen.","","stimuli/6-Congruent.jpg","z","","","","","left","z","true"
"","null","html-keyboard-response","257","2.0.0","221469","p6xl036oqq0","bigger"," penguin","To test whether the real life ""size"" of items would effect the way they are determined on a computer screen.","","<p>Correct!</p>","null","","","","","","",""
"","null","html-keyboard-response","258","2.0.0","222470","p6xl036oqq0","bigger"," penguin","To test whether the real life ""size"" of items would effect the way they are determined on a computer screen.","","<div style=""font-size:60px;"">+</div>","null","","","","","","",""
"","483","image-keyboard-response","259","2.0.0","222953","p6xl036oqq0","bigger"," penguin","To test whether the real life ""size"" of items would effect the way they are determined on a computer screen.","","stimuli/8-Congruent.jpg","z","","","","","left","z","true"
"","null","html-keyboard-response","260","2.0.0","223862","p6xl036oqq0","bigger"," penguin","To test whether the real life ""size"" of items would effect the way they are determined on a computer screen.","","<p>Correct!</p>","null","","","","","","",""
"","null","html-keyboard-response","261","2.0.0","224876","p6xl036oqq0","bigger"," penguin","To test whether the real life ""size"" of items would effect the way they are determined on a computer screen.","","<div style=""font-size:60px;"">+</div>","null","","","","","","",""
"","438","image-keyboard-response","262","2.0.0","225315","p6xl036oqq0","bigger"," penguin","To test whether the real life ""size"" of items would effect the way they are determined on a computer screen.","","stimuli/35-Inongruent.jpg","m","","","","","right","m","true"
"","null","html-keyboard-response","263","2.0.0","226220","p6xl036oqq0","bigger"," penguin","To test whether the real life ""size"" of items would effect the way they are determined on a computer screen.","","<p>Correct!</p>","null","","","","","","",""
"","null","html-keyboard-response","264","2.0.0","227221","p6xl036oqq0","bigger"," penguin","To test whether the real life ""size"" of items would effect the way they are determined on a computer screen.","","<div style=""font-size:60px;"">+</div>","null","","","","","","",""
"","474","image-keyboard-response","265","2.0.0","227695","p6xl036oqq0","bigger"," penguin","To test whether the real life ""size"" of items would effect the way they are determined on a computer screen.","","stimuli/7-Congruent.jpg","z","","","","","left","z","true"
"","null","html-keyboard-response","266","2.0.0","228598","p6xl036oqq0","bigger"," penguin","To test whether the real life ""size"" of items would effect the way they are determined on a computer screen.","","<p>Correct!</p>","null","","","","","","",""
"","null","html-keyboard-response","267","2.0.0","229610","p6xl036oqq0","bigger"," penguin","To test whether the real life ""size"" of items would effect the way they are determined on a computer screen.","","<div style=""font-size:60px;"">+</div>","null","","","","","","",""
"","523","image-keyboard-response","268","2.0.0","230133","p6xl036oqq0","bigger"," penguin","To test whether the real life ""size"" of items would effect the way they are determined on a computer screen.","","stimuli/9-Congruent.jpg","z","","","","","left","z","true"
"","null","html-keyboard-response","269","2.0.0","231037","p6xl036oqq0","bigger"," penguin","To test whether the real life ""size"" of items would effect the way they are determined on a computer screen.","","<p>Correct!</p>","null","","","","","","",""
"","null","html-keyboard-response","270","2.0.0","232050","p6xl036oqq0","bigger"," penguin","To test whether the real life ""size"" of items would effect the way they are determined on a computer screen.","","<div style=""font-size:60px;"">+</div>","null","","","","","","",""
"","543","image-keyboard-response","271","2.0.0","232593","p6xl036oqq0","bigger"," penguin","To test whether the real life ""size"" of items would effect the way they are determined on a computer screen.","","stimuli/16-Congruent.jpg","z","","","","","left","z","true"
"","null","html-keyboard-response","272","2.0.0","233494","p6xl036oqq0","bigger"," penguin","To test whether the real life ""size"" of items would effect the way they are determined on a computer screen.","","<p>Correct!</p>","null","","","","","","",""
"","null","html-keyboard-response","273","2.0.0","234510","p6xl036oqq0","bigger"," penguin","To test whether the real life ""size"" of items would effect the way they are determined on a computer screen.","","<div style=""font-size:60px;"">+</div>","null","","","","","","",""
"","674","image-keyboard-response","274","2.0.0","235184","p6xl036oqq0","bigger"," penguin","To test whether the real life ""size"" of items would effect the way they are determined on a computer screen.","","stimuli/18-Congruent.jpg","z","","","","","left","z","true"
"","null","html-keyboard-response","275","2.0.0","236096","p6xl036oqq0","bigger"," penguin","To test whether the real life ""size"" of items would effect the way they are determined on a computer screen.","","<p>Correct!</p>","null","","","","","","",""
"","null","html-keyboard-response","276","2.0.0","237108","p6xl036oqq0","bigger"," penguin","To test whether the real life ""size"" of items would effect the way they are determined on a computer screen.","","<div style=""font-size:60px;"">+</div>","null","","","","","","",""
"","501","image-keyboard-response","277","2.0.0","237610","p6xl036oqq0","bigger"," penguin","To test whether the real life ""size"" of items would effect the way they are determined on a computer screen.","","stimuli/36-Inongruent.jpg","m","","","","","right","m","true"
"","null","html-keyboard-response","278","2.0.0","238515","p6xl036oqq0","bigger"," penguin","To test whether the real life ""size"" of items would effect the way they are determined on a computer screen.","","<p>Correct!</p>","null","","","","","","",""
"","null","html-keyboard-response","279","2.0.0","239527","p6xl036oqq0","bigger"," penguin","To test whether the real life ""size"" of items would effect the way they are determined on a computer screen.","","<div style=""font-size:60px;"">+</div>","null","","","","","","",""
"","501","image-keyboard-response","280","2.0.0","240029","p6xl036oqq0","bigger"," penguin","To test whether the real life ""size"" of items would effect the way they are determined on a computer screen.","","stimuli/10-Inongruent.jpg","m","","","","","right","m","true"
"","null","html-keyboard-response","281","2.0.0","240934","p6xl036oqq0","bigger"," penguin","To test whether the real life ""size"" of items would effect the way they are determined on a computer screen.","","<p>Correct!</p>","null","","","","","","",""
"","null","html-keyboard-response","282","2.0.0","241946","p6xl036oqq0","bigger"," penguin","To test whether the real life ""size"" of items would effect the way they are determined on a computer screen.","","<div style=""font-size:60px;"">+</div>","null","","","","","","",""
"","512","image-keyboard-response","283","2.0.0","242459","p6xl036oqq0","bigger"," penguin","To test whether the real life ""size"" of items would effect the way they are determined on a computer screen.","","stimuli/8-Inongruent.jpg","m","","","","","right","m","true"
"","null","html-keyboard-response","284","2.0.0","243373","p6xl036oqq0","bigger"," penguin","To test whether the real life ""size"" of items would effect the way they are determined on a computer screen.","","<p>Correct!</p>","null","","","","","","",""
"","null","html-keyboard-response","285","2.0.0","244375","p6xl036oqq0","bigger"," penguin","To test whether the real life ""size"" of items would effect the way they are determined on a computer screen.","","<div style=""font-size:60px;"">+</div>","null","","","","","","",""
"","514","image-keyboard-response","286","2.0.0","244890","p6xl036oqq0","bigger"," penguin","To test whether the real life ""size"" of items would effect the way they are determined on a computer screen.","","stimuli/17-Inongruent.jpg","m","","","","","right","m","true"
"","null","html-keyboard-response","287","2.0.0","245803","p6xl036oqq0","bigger"," penguin","To test whether the real life ""size"" of items would effect the way they are determined on a computer screen.","","<p>Correct!</p>","null","","","","","","",""
"","null","html-keyboard-response","288","2.0.0","246818","p6xl036oqq0","bigger"," penguin","To test whether the real life ""size"" of items would effect the way they are determined on a computer screen.","","<div style=""font-size:60px;"">+</div>","null","","","","","","",""
"","755","image-keyboard-response","289","2.0.0","247573","p6xl036oqq0","bigger"," penguin","To test whether the real life ""size"" of items would effect the way they are determined on a computer screen.","","stimuli/23-Inongruent.jpg","m","","","","","right","m","true"
"","null","html-keyboard-response","290","2.0.0","248478","p6xl036oqq0","bigger"," penguin","To test whether the real life ""size"" of items would effect the way they are determined on a computer screen.","","<p>Correct!</p>","null","","","","","","",""
"","null","html-keyboard-response","291","2.0.0","249494","p6xl036oqq0","bigger"," penguin","To test whether the real life ""size"" of items would effect the way they are determined on a computer screen.","","<div style=""font-size:60px;"">+</div>","null","","","","","","",""
"","1040","image-keyboard-response","292","2.0.0","250535","p6xl036oqq0","bigger"," penguin","To test whether the real life ""size"" of items would effect the way they are determined on a computer screen.","","stimuli/8-Inongruent.jpg","m","","","","","right","m","true"
"","null","html-keyboard-response","293","2.0.0","251440","p6xl036oqq0","bigger"," penguin","To test whether the real life ""size"" of items would effect the way they are determined on a computer screen.","","<p>Correct!</p>","null","","","","","","",""
"","null","html-keyboard-response","294","2.0.0","252452","p6xl036oqq0","bigger"," penguin","To test whether the real life ""size"" of items would effect the way they are determined on a computer screen.","","<div style=""font-size:60px;"">+</div>","null","","","","","","",""
"","635","image-keyboard-response","295","2.0.0","253088","p6xl036oqq0","bigger"," penguin","To test whether the real life ""size"" of items would effect the way they are determined on a computer screen.","","stimuli/1-Congruent.jpg","z","","","","","left","z","true"
"","null","html-keyboard-response","296","2.0.0","253990","p6xl036oqq0","bigger"," penguin","To test whether the real life ""size"" of items would effect the way they are determined on a computer screen.","","<p>Correct!</p>","null","","","","","","",""
"","null","html-keyboard-response","297","2.0.0","255003","p6xl036oqq0","bigger"," penguin","To test whether the real life ""size"" of items would effect the way they are determined on a computer screen.","","<div style=""font-size:60px;"">+</div>","null","","","","","","",""
"","795","image-keyboard-response","298","2.0.0","255799","p6xl036oqq0","bigger"," penguin","To test whether the real life ""size"" of items would effect the way they are determined on a computer screen.","","stimuli/33-Inongruent.jpg","m","","","","","right","m","true"
"","null","html-keyboard-response","299","2.0.0","256710","p6xl036oqq0","bigger"," penguin","To test whether the real life ""size"" of items would effect the way they are determined on a computer screen.","","<p>Correct!</p>","null","","","","","","",""
"","null","html-keyboard-response","300","2.0.0","257719","p6xl036oqq0","bigger"," penguin","To test whether the real life ""size"" of items would effect the way they are determined on a computer screen.","","<div style=""font-size:60px;"">+</div>","null","","","","","","",""
"","606","image-keyboard-response","301","2.0.0","258326","p6xl036oqq0","bigger"," penguin","To test whether the real life ""size"" of items would effect the way they are determined on a computer screen.","","stimuli/3-Congruent.jpg","z","","","","","left","z","true"
"","null","html-keyboard-response","302","2.0.0","259232","p6xl036oqq0","bigger"," penguin","To test whether the real life ""size"" of items would effect the way they are determined on a computer screen.","","<p>Correct!</p>","null","","","","","","",""
"","null","html-keyboard-response","303","2.0.0","260241","p6xl036oqq0","bigger"," penguin","To test whether the real life ""size"" of items would effect the way they are determined on a computer screen.","","<div style=""font-size:60px;"">+</div>","null","","","","","","",""
"","914","image-keyboard-response","304","2.0.0","261156","p6xl036oqq0","bigger"," penguin","To test whether the real life ""size"" of items would effect the way they are determined on a computer screen.","","stimuli/7-Inongruent.jpg","m","","","","","right","m","true"
"","null","html-keyboard-response","305","2.0.0","262069","p6xl036oqq0","bigger"," penguin","To test whether the real life ""size"" of items would effect the way they are determined on a computer screen.","","<p>Correct!</p>","null","","","","","","",""
"","null","html-keyboard-response","306","2.0.0","263083","p6xl036oqq0","bigger"," penguin","To test whether the real life ""size"" of items would effect the way they are determined on a computer screen.","","<div style=""font-size:60px;"">+</div>","null","","","","","","",""
"","489","image-keyboard-response","307","2.0.0","263573","p6xl036oqq0","bigger"," penguin","To test whether the real life ""size"" of items would effect the way they are determined on a computer screen.","","stimuli/9-Congruent.jpg","z","","","","","left","z","true"
"","null","html-keyboard-response","308","2.0.0","264474","p6xl036oqq0","bigger"," penguin","To test whether the real life ""size"" of items would effect the way they are determined on a computer screen.","","<p>Correct!</p>","null","","","","","","",""
"","null","html-keyboard-response","309","2.0.0","265483","p6xl036oqq0","bigger"," penguin","To test whether the real life ""size"" of items would effect the way they are determined on a computer screen.","","<div style=""font-size:60px;"">+</div>","null","","","","","","",""
"","873","image-keyboard-response","310","2.0.0","266357","p6xl036oqq0","bigger"," penguin","To test whether the real life ""size"" of items would effect the way they are determined on a computer screen.","","stimuli/11-Congruent.jpg","z","","","","","left","z","true"
"","null","html-keyboard-response","311","2.0.0","267272","p6xl036oqq0","bigger"," penguin","To test whether the real life ""size"" of items would effect the way they are determined on a computer screen.","","<p>Correct!</p>","null","","","","","","",""
"","null","html-keyboard-response","312","2.0.0","268288","p6xl036oqq0","bigger"," penguin","To test whether the real life ""size"" of items would effect the way they are determined on a computer screen.","","<div style=""font-size:60px;"">+</div>","null","","","","","","",""
"","686","image-keyboard-response","313","2.0.0","268975","p6xl036oqq0","bigger"," penguin","To test whether the real life ""size"" of items would effect the way they are determined on a computer screen.","","stimuli/5-Congruent.jpg","z","","","","","left","z","true"
"","null","html-keyboard-response","314","2.0.0","269883","p6xl036oqq0","bigger"," penguin","To test whether the real life ""size"" of items would effect the way they are determined on a computer screen.","","<p>Correct!</p>","null","","","","","","",""
"","null","html-keyboard-response","315","2.0.0","270885","p6xl036oqq0","bigger"," penguin","To test whether the real life ""size"" of items would effect the way they are determined on a computer screen.","","<div style=""font-size:60px;"">+</div>","null","","","","","","",""
"","538","image-keyboard-response","316","2.0.0","271425","p6xl036oqq0","bigger"," penguin","To test whether the real life ""size"" of items would effect the way they are determined on a computer screen.","","stimuli/33-Congruent.jpg","z","","","","","left","z","true"
"","null","html-keyboard-response","317","2.0.0","272334","p6xl036oqq0","bigger"," penguin","To test whether the real life ""size"" of items would effect the way they are determined on a computer screen.","","<p>Correct!</p>","null","","","","","","",""
"","null","html-keyboard-response","318","2.0.0","273347","p6xl036oqq0","bigger"," penguin","To test whether the real life ""size"" of items would effect the way they are determined on a computer screen.","","<div style=""font-size:60px;"">+</div>","null","","","","","","",""
"","504","image-keyboard-response","319","2.0.0","273852","p6xl036oqq0","bigger"," penguin","To test whether the real life ""size"" of items would effect the way they are determined on a computer screen.","","stimuli/19-Congruent.jpg","z","","","","","left","z","true"
"","null","html-keyboard-response","320","2.0.0","274769","p6xl036oqq0","bigger"," penguin","To test whether the real life ""size"" of items would effect the way they are determined on a computer screen.","","<p>Correct!</p>","null","","","","","","",""
"","null","html-keyboard-response","321","2.0.0","275784","p6xl036oqq0","bigger"," penguin","To test whether the real life ""size"" of items would effect the way they are determined on a computer screen.","","<div style=""font-size:60px;"">+</div>","null","","","","","","",""
"","532","image-keyboard-response","322","2.0.0","276317","p6xl036oqq0","bigger"," penguin","To test whether the real life ""size"" of items would effect the way they are determined on a computer screen.","","stimuli/7-Congruent.jpg","z","","","","","left","z","true"
"","null","html-keyboard-response","323","2.0.0","277221","p6xl036oqq0","bigger"," penguin","To test whether the real life ""size"" of items would effect the way they are determined on a computer screen.","","<p>Correct!</p>","null","","","","","","",""
"","null","html-keyboard-response","324","2.0.0","278233","p6xl036oqq0","bigger"," penguin","To test whether the real life ""size"" of items would effect the way they are determined on a computer screen.","","<div style=""font-size:60px;"">+</div>","null","","","","","","",""
"","657","image-keyboard-response","325","2.0.0","278891","p6xl036oqq0","bigger"," penguin","To test whether the real life ""size"" of items would effect the way they are determined on a computer screen.","","stimuli/4-Congruent.jpg","z","","","","","left","z","true"
"","null","html-keyboard-response","326","2.0.0","279807","p6xl036oqq0","bigger"," penguin","To test whether the real life ""size"" of items would effect the way they are determined on a computer screen.","","<p>Correct!</p>","null","","","","","","",""
"","null","html-keyboard-response","327","2.0.0","280810","p6xl036oqq0","bigger"," penguin","To test whether the real life ""size"" of items would effect the way they are determined on a computer screen.","","<div style=""font-size:60px;"">+</div>","null","","","","","","",""
"","506","image-keyboard-response","328","2.0.0","281317","p6xl036oqq0","bigger"," penguin","To test whether the real life ""size"" of items would effect the way they are determined on a computer screen.","","stimuli/28-Congruent.jpg","z","","","","","left","z","true"
"","null","html-keyboard-response","329","2.0.0","282225","p6xl036oqq0","bigger"," penguin","To test whether the real life ""size"" of items would effect the way they are determined on a computer screen.","","<p>Correct!</p>","null","","","","","","",""
"","null","html-keyboard-response","330","2.0.0","283238","p6xl036oqq0","bigger"," penguin","To test whether the real life ""size"" of items would effect the way they are determined on a computer screen.","","<div style=""font-size:60px;"">+</div>","null","","","","","","",""
"","538","image-keyboard-response","331","2.0.0","283778","p6xl036oqq0","bigger"," penguin","To test whether the real life ""size"" of items would effect the way they are determined on a computer screen.","","stimuli/28-Inongruent.jpg","m","","","","","right","m","true"
"","null","html-keyboard-response","332","2.0.0","284688","p6xl036oqq0","bigger"," penguin","To test whether the real life ""size"" of items would effect the way they are determined on a computer screen.","","<p>Correct!</p>","null","","","","","","",""
"","null","html-keyboard-response","333","2.0.0","285691","p6xl036oqq0","bigger"," penguin","To test whether the real life ""size"" of items would effect the way they are determined on a computer screen.","","<div style=""font-size:60px;"">+</div>","null","","","","","","",""
"","468","image-keyboard-response","334","2.0.0","286160","p6xl036oqq0","bigger"," penguin","To test whether the real life ""size"" of items would effect the way they are determined on a computer screen.","","stimuli/14-Congruent.jpg","z","","","","","left","z","true"
"","null","html-keyboard-response","335","2.0.0","287064","p6xl036oqq0","bigger"," penguin","To test whether the real life ""size"" of items would effect the way they are determined on a computer screen.","","<p>Correct!</p>","null","","","","","","",""
"","null","html-keyboard-response","336","2.0.0","288079","p6xl036oqq0","bigger"," penguin","To test whether the real life ""size"" of items would effect the way they are determined on a computer screen.","","<div style=""font-size:60px;"">+</div>","null","","","","","","",""
"","619","image-keyboard-response","337","2.0.0","288700","p6xl036oqq0","bigger"," penguin","To test whether the real life ""size"" of items would effect the way they are determined on a computer screen.","","stimuli/5-Congruent.jpg","z","","","","","left","z","true"
"","null","html-keyboard-response","338","2.0.0","289606","p6xl036oqq0","bigger"," penguin","To test whether the real life ""size"" of items would effect the way they are determined on a computer screen.","","<p>Correct!</p>","null","","","","","","",""
"","null","html-keyboard-response","339","2.0.0","290610","p6xl036oqq0","bigger"," penguin","To test whether the real life ""size"" of items would effect the way they are determined on a computer screen.","","<div style=""font-size:60px;"">+</div>","null","","","","","","",""
"","478","image-keyboard-response","340","2.0.0","291089","p6xl036oqq0","bigger"," penguin","To test whether the real life ""size"" of items would effect the way they are determined on a computer screen.","","stimuli/27-Inongruent.jpg","m","","","","","right","m","true"
"","null","html-keyboard-response","341","2.0.0","291997","p6xl036oqq0","bigger"," penguin","To test whether the real life ""size"" of items would effect the way they are determined on a computer screen.","","<p>Correct!</p>","null","","","","","","",""
"","null","html-keyboard-response","342","2.0.0","293012","p6xl036oqq0","bigger"," penguin","To test whether the real life ""size"" of items would effect the way they are determined on a computer screen.","","<div style=""font-size:60px;"">+</div>","null","","","","","","",""
"","448","image-keyboard-response","343","2.0.0","293461","p6xl036oqq0","bigger"," penguin","To test whether the real life ""size"" of items would effect the way they are determined on a computer screen.","","stimuli/13-Congruent.jpg","z","","","","","left","z","true"
"","null","html-keyboard-response","344","2.0.0","294370","p6xl036oqq0","bigger"," penguin","To test whether the real life ""size"" of items would effect the way they are determined on a computer screen.","","<p>Correct!</p>","null","","","","","","",""
"","null","html-keyboard-response","345","2.0.0","295387","p6xl036oqq0","bigger"," penguin","To test whether the real life ""size"" of items would effect the way they are determined on a computer screen.","","<div style=""font-size:60px;"">+</div>","null","","","","","","",""
"","437","image-keyboard-response","346","2.0.0","295825","p6xl036oqq0","bigger"," penguin","To test whether the real life ""size"" of items would effect the way they are determined on a computer screen.","","stimuli/14-Inongruent.jpg","m","","","","","right","m","true"
"","null","html-keyboard-response","347","2.0.0","296732","p6xl036oqq0","bigger"," penguin","To test whether the real life ""size"" of items would effect the way they are determined on a computer screen.","","<p>Correct!</p>","null","","","","","","",""
"","null","html-keyboard-response","348","2.0.0","297748","p6xl036oqq0","bigger"," penguin","To test whether the real life ""size"" of items would effect the way they are determined on a computer screen.","","<div style=""font-size:60px;"">+</div>","null","","","","","","",""
"","379","image-keyboard-response","349","2.0.0","298128","p6xl036oqq0","bigger"," penguin","To test whether the real life ""size"" of items would effect the way they are determined on a computer screen.","","stimuli/10-Congruent.jpg","z","","","","","left","z","true"
"","null","html-keyboard-response","350","2.0.0","299043","p6xl036oqq0","bigger"," penguin","To test whether the real life ""size"" of items would effect the way they are determined on a computer screen.","","<p>Correct!</p>","null","","","","","","",""
"","null","html-keyboard-response","351","2.0.0","300058","p6xl036oqq0","bigger"," penguin","To test whether the real life ""size"" of items would effect the way they are determined on a computer screen.","","<div style=""font-size:60px;"">+</div>","null","","","","","","",""
"","389","image-keyboard-response","352","2.0.0","300448","p6xl036oqq0","bigger"," penguin","To test whether the real life ""size"" of items would effect the way they are determined on a computer screen.","","stimuli/18-Inongruent.jpg","m","","","","","right","m","true"
"","null","html-keyboard-response","353","2.0.0","301354","p6xl036oqq0","bigger"," penguin","To test whether the real life ""size"" of items would effect the way they are determined on a computer screen.","","<p>Correct!</p>","null","","","","","","",""
"","null","html-keyboard-response","354","2.0.0","302368","p6xl036oqq0","bigger"," penguin","To test whether the real life ""size"" of items would effect the way they are determined on a computer screen.","","<div style=""font-size:60px;"">+</div>","null","","","","","","",""
"","507","image-keyboard-response","355","2.0.0","302876","p6xl036oqq0","bigger"," penguin","To test whether the real life ""size"" of items would effect the way they are determined on a computer screen.","","stimuli/33-Inongruent.jpg","m","","","","","right","m","true"
"","null","html-keyboard-response","356","2.0.0","303786","p6xl036oqq0","bigger"," penguin","To test whether the real life ""size"" of items would effect the way they are determined on a computer screen.","","<p>Correct!</p>","null","","","","","","",""
"","null","html-keyboard-response","357","2.0.0","304790","p6xl036oqq0","bigger"," penguin","To test whether the real life ""size"" of items would effect the way they are determined on a computer screen.","","<div style=""font-size:60px;"">+</div>","null","","","","","","",""
"","459","image-keyboard-response","358","2.0.0","305250","p6xl036oqq0","bigger"," penguin","To test whether the real life ""size"" of items would effect the way they are determined on a computer screen.","","stimuli/4-Inongruent.jpg","m","","","","","right","m","true"
"","null","html-keyboard-response","359","2.0.0","306164","p6xl036oqq0","bigger"," penguin","To test whether the real life ""size"" of items would effect the way they are determined on a computer screen.","","<p>Correct!</p>","null","","","","","","",""
"","null","html-keyboard-response","360","2.0.0","307165","p6xl036oqq0","bigger"," penguin","To test whether the real life ""size"" of items would effect the way they are determined on a computer screen.","","<div style=""font-size:60px;"">+</div>","null","","","","","","",""
"","499","image-keyboard-response","361","2.0.0","307664","p6xl036oqq0","bigger"," penguin","To test whether the real life ""size"" of items would effect the way they are determined on a computer screen.","","stimuli/20-Inongruent.jpg","m","","","","","right","m","true"
"","null","html-keyboard-response","362","2.0.0","308575","p6xl036oqq0","bigger"," penguin","To test whether the real life ""size"" of items would effect the way they are determined on a computer screen.","","<p>Correct!</p>","null","","","","","","",""
"","null","html-keyboard-response","363","2.0.0","309591","p6xl036oqq0","bigger"," penguin","To test whether the real life ""size"" of items would effect the way they are determined on a computer screen.","","<div style=""font-size:60px;"">+</div>","null","","","","","","",""
"","833","image-keyboard-response","364","2.0.0","310426","p6xl036oqq0","bigger"," penguin","To test whether the real life ""size"" of items would effect the way they are determined on a computer screen.","","stimuli/23-Congruent.jpg","z","","","","","left","z","true"
"","null","html-keyboard-response","365","2.0.0","311340","p6xl036oqq0","bigger"," penguin","To test whether the real life ""size"" of items would effect the way they are determined on a computer screen.","","<p>Correct!</p>","null","","","","","","",""
"","null","html-keyboard-response","366","2.0.0","312352","p6xl036oqq0","bigger"," penguin","To test whether the real life ""size"" of items would effect the way they are determined on a computer screen.","","<div style=""font-size:60px;"">+</div>","null","","","","","","",""
"","535","image-keyboard-response","367","2.0.0","312888","p6xl036oqq0","bigger"," penguin","To test whether the real life ""size"" of items would effect the way they are determined on a computer screen.","","stimuli/35-Inongruent.jpg","m","","","","","right","m","true"
"","null","html-keyboard-response","368","2.0.0","313803","p6xl036oqq0","bigger"," penguin","To test whether the real life ""size"" of items would effect the way they are determined on a computer screen.","","<p>Correct!</p>","null","","","","","","",""
"","null","html-keyboard-response","369","2.0.0","314816","p6xl036oqq0","bigger"," penguin","To test whether the real life ""size"" of items would effect the way they are determined on a computer screen.","","<div style=""font-size:60px;"">+</div>","null","","","","","","",""
"","470","image-keyboard-response","370","2.0.0","315288","p6xl036oqq0","bigger"," penguin","To test whether the real life ""size"" of items would effect the way they are determined on a computer screen.","","stimuli/34-Inongruent.jpg","m","","","","","right","m","true"
"","null","html-keyboard-response","371","2.0.0","316189","p6xl036oqq0","bigger"," penguin","To test whether the real life ""size"" of items would effect the way they are determined on a computer screen.","","<p>Correct!</p>","null","","","","","","",""
