"success","rt","trial_type","trial_index","plugin_version","time_elapsed","random_id","condition","participant","participant_thoughts","participant_difficulties","stimulus","response","timeout","failed_images","failed_audio","failed_video","correct_response","correct_response_key","correct"
"true","1427","fullscreen","0","null","2429","p7pth7yjlry","bigger","pelican","prior knowledge can influence our processing of information that's in front of us","no","","","","","","","","",""
"","2306","html-keyboard-response","1","2.0.0","4736","p7pth7yjlry","bigger","pelican","prior knowledge can influence our processing of information that's in front of us","no","Welcome to the Size Stroop experiment. Press any key to begin."," ","","","","","","",""
"","null","html-keyboard-response","2","2.0.0","5738","p7pth7yjlry","bigger","pelican","prior knowledge can influence our processing of information that's in front of us","no","This trial will be in fullscreen mode.","null","","","","","","",""
"","4484","survey-text","3","2.0.0","10223","p7pth7yjlry","bigger","pelican","prior knowledge can influence our processing of information that's in front of us","no","","{""participant_id"":""pelican""}","","","","","","",""
"","10489","html-keyboard-response","4","2.0.0","20713","p7pth7yjlry","bigger","pelican","prior knowledge can influence our processing of information that's in front of us","no","<p>In this experiment, two images will appear on the screen. Identify the <strong>larger</strong> images.</p>
              <p>If the image on the left is larger, press ""z"". If the image on the right is larger, press ""m"".</p>
              <p>Press any key to begin.</p>"," ","","","","","","",""
"true","","preload","5","2.0.0","20791","p7pth7yjlry","bigger","pelican","prior knowledge can influence our processing of information that's in front of us","no","","","false","[]","[]","[]","","",""
"","null","html-keyboard-response","6","2.0.0","21793","p7pth7yjlry","bigger","pelican","prior knowledge can influence our processing of information that's in front of us","no","<div style=""font-size:60px;"">+</div>","null","","","","","","",""
"","1101","image-keyboard-response","7","2.0.0","22898","p7pth7yjlry","bigger","pelican","prior knowledge can influence our processing of information that's in front of us","no","stimuli/6-Inongruent.jpg","m","","","","","right","m","true"
"","null","html-keyboard-response","8","2.0.0","23801","p7pth7yjlry","bigger","pelican","prior knowledge can influence our processing of information that's in front of us","no","<p>Correct!</p>","null","","","","","","",""
"","null","html-keyboard-response","9","2.0.0","24804","p7pth7yjlry","bigger","pelican","prior knowledge can influence our processing of information that's in front of us","no","<div style=""font-size:60px;"">+</div>","null","","","","","","",""
"","1426","image-keyboard-response","10","2.0.0","26233","p7pth7yjlry","bigger","pelican","prior knowledge can influence our processing of information that's in front of us","no","stimuli/11-Congruent.jpg","z","","","","","left","z","true"
"","null","html-keyboard-response","11","2.0.0","27136","p7pth7yjlry","bigger","pelican","prior knowledge can influence our processing of information that's in front of us","no","<p>Correct!</p>","null","","","","","","",""
"","null","html-keyboard-response","12","2.0.0","28139","p7pth7yjlry","bigger","pelican","prior knowledge can influence our processing of information that's in front of us","no","<div style=""font-size:60px;"">+</div>","null","","","","","","",""
"","811","image-keyboard-response","13","2.0.0","28954","p7pth7yjlry","bigger","pelican","prior knowledge can influence our processing of information that's in front of us","no","stimuli/7-Congruent.jpg","z","","","","","left","z","true"
"","null","html-keyboard-response","14","2.0.0","29857","p7pth7yjlry","bigger","pelican","prior knowledge can influence our processing of information that's in front of us","no","<p>Correct!</p>","null","","","","","","",""
"","null","html-keyboard-response","15","2.0.0","30860","p7pth7yjlry","bigger","pelican","prior knowledge can influence our processing of information that's in front of us","no","<div style=""font-size:60px;"">+</div>","null","","","","","","",""
"","1007","image-keyboard-response","16","2.0.0","31871","p7pth7yjlry","bigger","pelican","prior knowledge can influence our processing of information that's in front of us","no","stimuli/8-Congruent.jpg","z","","","","","left","z","true"
"","null","html-keyboard-response","17","2.0.0","32773","p7pth7yjlry","bigger","pelican","prior knowledge can influence our processing of information that's in front of us","no","<p>Correct!</p>","null","","","","","","",""
"","null","html-keyboard-response","18","2.0.0","33775","p7pth7yjlry","bigger","pelican","prior knowledge can influence our processing of information that's in front of us","no","<div style=""font-size:60px;"">+</div>","null","","","","","","",""
"","782","image-keyboard-response","19","2.0.0","34560","p7pth7yjlry","bigger","pelican","prior knowledge can influence our processing of information that's in front of us","no","stimuli/28-Congruent.jpg","z","","","","","left","z","true"
"","null","html-keyboard-response","20","2.0.0","35462","p7pth7yjlry","bigger","pelican","prior knowledge can influence our processing of information that's in front of us","no","<p>Correct!</p>","null","","","","","","",""
"","null","html-keyboard-response","21","2.0.0","36465","p7pth7yjlry","bigger","pelican","prior knowledge can influence our processing of information that's in front of us","no","<div style=""font-size:60px;"">+</div>","null","","","","","","",""
"","960","image-keyboard-response","22","2.0.0","37429","p7pth7yjlry","bigger","pelican","prior knowledge can influence our processing of information that's in front of us","no","stimuli/25-Congruent.jpg","z","","","","","left","z","true"
"","null","html-keyboard-response","23","2.0.0","38331","p7pth7yjlry","bigger","pelican","prior knowledge can influence our processing of information that's in front of us","no","<p>Correct!</p>","null","","","","","","",""
"","null","html-keyboard-response","24","2.0.0","39333","p7pth7yjlry","bigger","pelican","prior knowledge can influence our processing of information that's in front of us","no","<div style=""font-size:60px;"">+</div>","null","","","","","","",""
"","703","image-keyboard-response","25","2.0.0","40040","p7pth7yjlry","bigger","pelican","prior knowledge can influence our processing of information that's in front of us","no","stimuli/33-Inongruent.jpg","m","","","","","right","m","true"
"","null","html-keyboard-response","26","2.0.0","40942","p7pth7yjlry","bigger","pelican","prior knowledge can influence our processing of information that's in front of us","no","<p>Correct!</p>","null","","","","","","",""
"","null","html-keyboard-response","27","2.0.0","41945","p7pth7yjlry","bigger","pelican","prior knowledge can influence our processing of information that's in front of us","no","<div style=""font-size:60px;"">+</div>","null","","","","","","",""
"","725","image-keyboard-response","28","2.0.0","42673","p7pth7yjlry","bigger","pelican","prior knowledge can influence our processing of information that's in front of us","no","stimuli/30-Congruent.jpg","z","","","","","left","z","true"
"","null","html-keyboard-response","29","2.0.0","43576","p7pth7yjlry","bigger","pelican","prior knowledge can influence our processing of information that's in front of us","no","<p>Correct!</p>","null","","","","","","",""
"","null","html-keyboard-response","30","2.0.0","44579","p7pth7yjlry","bigger","pelican","prior knowledge can influence our processing of information that's in front of us","no","<div style=""font-size:60px;"">+</div>","null","","","","","","",""
"","786","image-keyboard-response","31","2.0.0","45369","p7pth7yjlry","bigger","pelican","prior knowledge can influence our processing of information that's in front of us","no","stimuli/30-Inongruent.jpg","m","","","","","right","m","true"
"","null","html-keyboard-response","32","2.0.0","46271","p7pth7yjlry","bigger","pelican","prior knowledge can influence our processing of information that's in front of us","no","<p>Correct!</p>","null","","","","","","",""
"","null","html-keyboard-response","33","2.0.0","47272","p7pth7yjlry","bigger","pelican","prior knowledge can influence our processing of information that's in front of us","no","<div style=""font-size:60px;"">+</div>","null","","","","","","",""
"","1134","image-keyboard-response","34","2.0.0","48409","p7pth7yjlry","bigger","pelican","prior knowledge can influence our processing of information that's in front of us","no","stimuli/13-Inongruent.jpg","m","","","","","right","m","true"
"","null","html-keyboard-response","35","2.0.0","49311","p7pth7yjlry","bigger","pelican","prior knowledge can influence our processing of information that's in front of us","no","<p>Correct!</p>","null","","","","","","",""
"","null","html-keyboard-response","36","2.0.0","50313","p7pth7yjlry","bigger","pelican","prior knowledge can influence our processing of information that's in front of us","no","<div style=""font-size:60px;"">+</div>","null","","","","","","",""
"","1385","image-keyboard-response","37","2.0.0","51700","p7pth7yjlry","bigger","pelican","prior knowledge can influence our processing of information that's in front of us","no","stimuli/22-Congruent.jpg","z","","","","","left","z","true"
"","null","html-keyboard-response","38","2.0.0","52602","p7pth7yjlry","bigger","pelican","prior knowledge can influence our processing of information that's in front of us","no","<p>Correct!</p>","null","","","","","","",""
"","null","html-keyboard-response","39","2.0.0","53604","p7pth7yjlry","bigger","pelican","prior knowledge can influence our processing of information that's in front of us","no","<div style=""font-size:60px;"">+</div>","null","","","","","","",""
"","1325","image-keyboard-response","40","2.0.0","54932","p7pth7yjlry","bigger","pelican","prior knowledge can influence our processing of information that's in front of us","no","stimuli/15-Congruent.jpg","z","","","","","left","z","true"
"","null","html-keyboard-response","41","2.0.0","55834","p7pth7yjlry","bigger","pelican","prior knowledge can influence our processing of information that's in front of us","no","<p>Correct!</p>","null","","","","","","",""
"","null","html-keyboard-response","42","2.0.0","56836","p7pth7yjlry","bigger","pelican","prior knowledge can influence our processing of information that's in front of us","no","<div style=""font-size:60px;"">+</div>","null","","","","","","",""
"","1423","image-keyboard-response","43","2.0.0","58262","p7pth7yjlry","bigger","pelican","prior knowledge can influence our processing of information that's in front of us","no","stimuli/29-Congruent.jpg","z","","","","","left","z","true"
"","null","html-keyboard-response","44","2.0.0","59164","p7pth7yjlry","bigger","pelican","prior knowledge can influence our processing of information that's in front of us","no","<p>Correct!</p>","null","","","","","","",""
"","null","html-keyboard-response","45","2.0.0","60166","p7pth7yjlry","bigger","pelican","prior knowledge can influence our processing of information that's in front of us","no","<div style=""font-size:60px;"">+</div>","null","","","","","","",""
"","932","image-keyboard-response","46","2.0.0","61100","p7pth7yjlry","bigger","pelican","prior knowledge can influence our processing of information that's in front of us","no","stimuli/17-Inongruent.jpg","m","","","","","right","m","true"
"","null","html-keyboard-response","47","2.0.0","62002","p7pth7yjlry","bigger","pelican","prior knowledge can influence our processing of information that's in front of us","no","<p>Correct!</p>","null","","","","","","",""
"","null","html-keyboard-response","48","2.0.0","63004","p7pth7yjlry","bigger","pelican","prior knowledge can influence our processing of information that's in front of us","no","<div style=""font-size:60px;"">+</div>","null","","","","","","",""
"","1041","image-keyboard-response","49","2.0.0","64048","p7pth7yjlry","bigger","pelican","prior knowledge can influence our processing of information that's in front of us","no","stimuli/3-Congruent.jpg","z","","","","","left","z","true"
"","null","html-keyboard-response","50","2.0.0","64949","p7pth7yjlry","bigger","pelican","prior knowledge can influence our processing of information that's in front of us","no","<p>Correct!</p>","null","","","","","","",""
"","null","html-keyboard-response","51","2.0.0","65951","p7pth7yjlry","bigger","pelican","prior knowledge can influence our processing of information that's in front of us","no","<div style=""font-size:60px;"">+</div>","null","","","","","","",""
"","877","image-keyboard-response","52","2.0.0","66830","p7pth7yjlry","bigger","pelican","prior knowledge can influence our processing of information that's in front of us","no","stimuli/18-Congruent.jpg","z","","","","","left","z","true"
"","null","html-keyboard-response","53","2.0.0","67732","p7pth7yjlry","bigger","pelican","prior knowledge can influence our processing of information that's in front of us","no","<p>Correct!</p>","null","","","","","","",""
"","null","html-keyboard-response","54","2.0.0","68734","p7pth7yjlry","bigger","pelican","prior knowledge can influence our processing of information that's in front of us","no","<div style=""font-size:60px;"">+</div>","null","","","","","","",""
"","794","image-keyboard-response","55","2.0.0","69532","p7pth7yjlry","bigger","pelican","prior knowledge can influence our processing of information that's in front of us","no","stimuli/15-Congruent.jpg","z","","","","","left","z","true"
"","null","html-keyboard-response","56","2.0.0","70434","p7pth7yjlry","bigger","pelican","prior knowledge can influence our processing of information that's in front of us","no","<p>Correct!</p>","null","","","","","","",""
"","null","html-keyboard-response","57","2.0.0","71436","p7pth7yjlry","bigger","pelican","prior knowledge can influence our processing of information that's in front of us","no","<div style=""font-size:60px;"">+</div>","null","","","","","","",""
"","942","image-keyboard-response","58","2.0.0","72382","p7pth7yjlry","bigger","pelican","prior knowledge can influence our processing of information that's in front of us","no","stimuli/19-Inongruent.jpg","m","","","","","right","m","true"
"","null","html-keyboard-response","59","2.0.0","73284","p7pth7yjlry","bigger","pelican","prior knowledge can influence our processing of information that's in front of us","no","<p>Correct!</p>","null","","","","","","",""
"","null","html-keyboard-response","60","2.0.0","74287","p7pth7yjlry","bigger","pelican","prior knowledge can influence our processing of information that's in front of us","no","<div style=""font-size:60px;"">+</div>","null","","","","","","",""
"","1286","image-keyboard-response","61","2.0.0","75577","p7pth7yjlry","bigger","pelican","prior knowledge can influence our processing of information that's in front of us","no","stimuli/12-Inongruent.jpg","m","","","","","right","m","true"
"","null","html-keyboard-response","62","2.0.0","76479","p7pth7yjlry","bigger","pelican","prior knowledge can influence our processing of information that's in front of us","no","<p>Correct!</p>","null","","","","","","",""
"","null","html-keyboard-response","63","2.0.0","77481","p7pth7yjlry","bigger","pelican","prior knowledge can influence our processing of information that's in front of us","no","<div style=""font-size:60px;"">+</div>","null","","","","","","",""
"","869","image-keyboard-response","64","2.0.0","78354","p7pth7yjlry","bigger","pelican","prior knowledge can influence our processing of information that's in front of us","no","stimuli/26-Congruent.jpg","z","","","","","left","z","true"
"","null","html-keyboard-response","65","2.0.0","79256","p7pth7yjlry","bigger","pelican","prior knowledge can influence our processing of information that's in front of us","no","<p>Correct!</p>","null","","","","","","",""
"","null","html-keyboard-response","66","2.0.0","80259","p7pth7yjlry","bigger","pelican","prior knowledge can influence our processing of information that's in front of us","no","<div style=""font-size:60px;"">+</div>","null","","","","","","",""
"","864","image-keyboard-response","67","2.0.0","81125","p7pth7yjlry","bigger","pelican","prior knowledge can influence our processing of information that's in front of us","no","stimuli/19-Inongruent.jpg","m","","","","","right","m","true"
"","null","html-keyboard-response","68","2.0.0","82027","p7pth7yjlry","bigger","pelican","prior knowledge can influence our processing of information that's in front of us","no","<p>Correct!</p>","null","","","","","","",""
"","null","html-keyboard-response","69","2.0.0","83029","p7pth7yjlry","bigger","pelican","prior knowledge can influence our processing of information that's in front of us","no","<div style=""font-size:60px;"">+</div>","null","","","","","","",""
"","764","image-keyboard-response","70","2.0.0","83797","p7pth7yjlry","bigger","pelican","prior knowledge can influence our processing of information that's in front of us","no","stimuli/15-Inongruent.jpg","m","","","","","right","m","true"
"","null","html-keyboard-response","71","2.0.0","84699","p7pth7yjlry","bigger","pelican","prior knowledge can influence our processing of information that's in front of us","no","<p>Correct!</p>","null","","","","","","",""
"","null","html-keyboard-response","72","2.0.0","85701","p7pth7yjlry","bigger","pelican","prior knowledge can influence our processing of information that's in front of us","no","<div style=""font-size:60px;"">+</div>","null","","","","","","",""
"","944","image-keyboard-response","73","2.0.0","86649","p7pth7yjlry","bigger","pelican","prior knowledge can influence our processing of information that's in front of us","no","stimuli/6-Inongruent.jpg","m","","","","","right","m","true"
"","null","html-keyboard-response","74","2.0.0","87552","p7pth7yjlry","bigger","pelican","prior knowledge can influence our processing of information that's in front of us","no","<p>Correct!</p>","null","","","","","","",""
"","null","html-keyboard-response","75","2.0.0","88554","p7pth7yjlry","bigger","pelican","prior knowledge can influence our processing of information that's in front of us","no","<div style=""font-size:60px;"">+</div>","null","","","","","","",""
"","952","image-keyboard-response","76","2.0.0","89508","p7pth7yjlry","bigger","pelican","prior knowledge can influence our processing of information that's in front of us","no","stimuli/20-Inongruent.jpg","m","","","","","right","m","true"
"","null","html-keyboard-response","77","2.0.0","90410","p7pth7yjlry","bigger","pelican","prior knowledge can influence our processing of information that's in front of us","no","<p>Correct!</p>","null","","","","","","",""
"","null","html-keyboard-response","78","2.0.0","91413","p7pth7yjlry","bigger","pelican","prior knowledge can influence our processing of information that's in front of us","no","<div style=""font-size:60px;"">+</div>","null","","","","","","",""
"","1057","image-keyboard-response","79","2.0.0","92473","p7pth7yjlry","bigger","pelican","prior knowledge can influence our processing of information that's in front of us","no","stimuli/11-Congruent.jpg","z","","","","","left","z","true"
"","null","html-keyboard-response","80","2.0.0","93375","p7pth7yjlry","bigger","pelican","prior knowledge can influence our processing of information that's in front of us","no","<p>Correct!</p>","null","","","","","","",""
"","null","html-keyboard-response","81","2.0.0","94378","p7pth7yjlry","bigger","pelican","prior knowledge can influence our processing of information that's in front of us","no","<div style=""font-size:60px;"">+</div>","null","","","","","","",""
"","900","image-keyboard-response","82","2.0.0","95282","p7pth7yjlry","bigger","pelican","prior knowledge can influence our processing of information that's in front of us","no","stimuli/5-Congruent.jpg","z","","","","","left","z","true"
"","null","html-keyboard-response","83","2.0.0","96184","p7pth7yjlry","bigger","pelican","prior knowledge can influence our processing of information that's in front of us","no","<p>Correct!</p>","null","","","","","","",""
"","null","html-keyboard-response","84","2.0.0","97187","p7pth7yjlry","bigger","pelican","prior knowledge can influence our processing of information that's in front of us","no","<div style=""font-size:60px;"">+</div>","null","","","","","","",""
"","1172","image-keyboard-response","85","2.0.0","98363","p7pth7yjlry","bigger","pelican","prior knowledge can influence our processing of information that's in front of us","no","stimuli/31-Congruent.jpg","z","","","","","left","z","true"
"","null","html-keyboard-response","86","2.0.0","99266","p7pth7yjlry","bigger","pelican","prior knowledge can influence our processing of information that's in front of us","no","<p>Correct!</p>","null","","","","","","",""
"","null","html-keyboard-response","87","2.0.0","100268","p7pth7yjlry","bigger","pelican","prior knowledge can influence our processing of information that's in front of us","no","<div style=""font-size:60px;"">+</div>","null","","","","","","",""
"","821","image-keyboard-response","88","2.0.0","101093","p7pth7yjlry","bigger","pelican","prior knowledge can influence our processing of information that's in front of us","no","stimuli/8-Congruent.jpg","z","","","","","left","z","true"
"","null","html-keyboard-response","89","2.0.0","101995","p7pth7yjlry","bigger","pelican","prior knowledge can influence our processing of information that's in front of us","no","<p>Correct!</p>","null","","","","","","",""
"","null","html-keyboard-response","90","2.0.0","102996","p7pth7yjlry","bigger","pelican","prior knowledge can influence our processing of information that's in front of us","no","<div style=""font-size:60px;"">+</div>","null","","","","","","",""
"","89762","image-keyboard-response","91","2.0.0","192762","p7pth7yjlry","bigger","pelican","prior knowledge can influence our processing of information that's in front of us","no","stimuli/13-Inongruent.jpg","m","","","","","right","m","true"
"","null","html-keyboard-response","92","2.0.0","193663","p7pth7yjlry","bigger","pelican","prior knowledge can influence our processing of information that's in front of us","no","<p>Correct!</p>","null","","","","","","",""
"","null","html-keyboard-response","93","2.0.0","194666","p7pth7yjlry","bigger","pelican","prior knowledge can influence our processing of information that's in front of us","no","<div style=""font-size:60px;"">+</div>","null","","","","","","",""
"","924","image-keyboard-response","94","2.0.0","195594","p7pth7yjlry","bigger","pelican","prior knowledge can influence our processing of information that's in front of us","no","stimuli/17-Congruent.jpg","z","","","","","left","z","true"
"","null","html-keyboard-response","95","2.0.0","196497","p7pth7yjlry","bigger","pelican","prior knowledge can influence our processing of information that's in front of us","no","<p>Correct!</p>","null","","","","","","",""
"","null","html-keyboard-response","96","2.0.0","197499","p7pth7yjlry","bigger","pelican","prior knowledge can influence our processing of information that's in front of us","no","<div style=""font-size:60px;"">+</div>","null","","","","","","",""
"","668","image-keyboard-response","97","2.0.0","198170","p7pth7yjlry","bigger","pelican","prior knowledge can influence our processing of information that's in front of us","no","stimuli/36-Inongruent.jpg","m","","","","","right","m","true"
"","null","html-keyboard-response","98","2.0.0","199072","p7pth7yjlry","bigger","pelican","prior knowledge can influence our processing of information that's in front of us","no","<p>Correct!</p>","null","","","","","","",""
"","null","html-keyboard-response","99","2.0.0","200075","p7pth7yjlry","bigger","pelican","prior knowledge can influence our processing of information that's in front of us","no","<div style=""font-size:60px;"">+</div>","null","","","","","","",""
"","2849","image-keyboard-response","100","2.0.0","202927","p7pth7yjlry","bigger","pelican","prior knowledge can influence our processing of information that's in front of us","no","stimuli/19-Congruent.jpg","z","","","","","left","z","true"
"","null","html-keyboard-response","101","2.0.0","203829","p7pth7yjlry","bigger","pelican","prior knowledge can influence our processing of information that's in front of us","no","<p>Correct!</p>","null","","","","","","",""
"","null","html-keyboard-response","102","2.0.0","204831","p7pth7yjlry","bigger","pelican","prior knowledge can influence our processing of information that's in front of us","no","<div style=""font-size:60px;"">+</div>","null","","","","","","",""
"","666","image-keyboard-response","103","2.0.0","205500","p7pth7yjlry","bigger","pelican","prior knowledge can influence our processing of information that's in front of us","no","stimuli/23-Congruent.jpg","z","","","","","left","z","true"
"","null","html-keyboard-response","104","2.0.0","206401","p7pth7yjlry","bigger","pelican","prior knowledge can influence our processing of information that's in front of us","no","<p>Correct!</p>","null","","","","","","",""
"","null","html-keyboard-response","105","2.0.0","207404","p7pth7yjlry","bigger","pelican","prior knowledge can influence our processing of information that's in front of us","no","<div style=""font-size:60px;"">+</div>","null","","","","","","",""
"","760","image-keyboard-response","106","2.0.0","208167","p7pth7yjlry","bigger","pelican","prior knowledge can influence our processing of information that's in front of us","no","stimuli/35-Inongruent.jpg","m","","","","","right","m","true"
"","null","html-keyboard-response","107","2.0.0","209069","p7pth7yjlry","bigger","pelican","prior knowledge can influence our processing of information that's in front of us","no","<p>Correct!</p>","null","","","","","","",""
"","null","html-keyboard-response","108","2.0.0","210071","p7pth7yjlry","bigger","pelican","prior knowledge can influence our processing of information that's in front of us","no","<div style=""font-size:60px;"">+</div>","null","","","","","","",""
"","641","image-keyboard-response","109","2.0.0","210717","p7pth7yjlry","bigger","pelican","prior knowledge can influence our processing of information that's in front of us","no","stimuli/29-Congruent.jpg","z","","","","","left","z","true"
"","null","html-keyboard-response","110","2.0.0","211619","p7pth7yjlry","bigger","pelican","prior knowledge can influence our processing of information that's in front of us","no","<p>Correct!</p>","null","","","","","","",""
"","null","html-keyboard-response","111","2.0.0","212621","p7pth7yjlry","bigger","pelican","prior knowledge can influence our processing of information that's in front of us","no","<div style=""font-size:60px;"">+</div>","null","","","","","","",""
"","644","image-keyboard-response","112","2.0.0","213270","p7pth7yjlry","bigger","pelican","prior knowledge can influence our processing of information that's in front of us","no","stimuli/14-Inongruent.jpg","m","","","","","right","m","true"
"","null","html-keyboard-response","113","2.0.0","214170","p7pth7yjlry","bigger","pelican","prior knowledge can influence our processing of information that's in front of us","no","<p>Correct!</p>","null","","","","","","",""
"","null","html-keyboard-response","114","2.0.0","215173","p7pth7yjlry","bigger","pelican","prior knowledge can influence our processing of information that's in front of us","no","<div style=""font-size:60px;"">+</div>","null","","","","","","",""
"","629","image-keyboard-response","115","2.0.0","215806","p7pth7yjlry","bigger","pelican","prior knowledge can influence our processing of information that's in front of us","no","stimuli/34-Congruent.jpg","z","","","","","left","z","true"
"","null","html-keyboard-response","116","2.0.0","216708","p7pth7yjlry","bigger","pelican","prior knowledge can influence our processing of information that's in front of us","no","<p>Correct!</p>","null","","","","","","",""
"","null","html-keyboard-response","117","2.0.0","217711","p7pth7yjlry","bigger","pelican","prior knowledge can influence our processing of information that's in front of us","no","<div style=""font-size:60px;"">+</div>","null","","","","","","",""
"","686","image-keyboard-response","118","2.0.0","218401","p7pth7yjlry","bigger","pelican","prior knowledge can influence our processing of information that's in front of us","no","stimuli/11-Inongruent.jpg","m","","","","","right","m","true"
"","null","html-keyboard-response","119","2.0.0","219304","p7pth7yjlry","bigger","pelican","prior knowledge can influence our processing of information that's in front of us","no","<p>Correct!</p>","null","","","","","","",""
"","null","html-keyboard-response","120","2.0.0","220307","p7pth7yjlry","bigger","pelican","prior knowledge can influence our processing of information that's in front of us","no","<div style=""font-size:60px;"">+</div>","null","","","","","","",""
"","806","image-keyboard-response","121","2.0.0","221116","p7pth7yjlry","bigger","pelican","prior knowledge can influence our processing of information that's in front of us","no","stimuli/24-Inongruent.jpg","m","","","","","right","m","true"
"","null","html-keyboard-response","122","2.0.0","222019","p7pth7yjlry","bigger","pelican","prior knowledge can influence our processing of information that's in front of us","no","<p>Correct!</p>","null","","","","","","",""
"","null","html-keyboard-response","123","2.0.0","223021","p7pth7yjlry","bigger","pelican","prior knowledge can influence our processing of information that's in front of us","no","<div style=""font-size:60px;"">+</div>","null","","","","","","",""
"","689","image-keyboard-response","124","2.0.0","223715","p7pth7yjlry","bigger","pelican","prior knowledge can influence our processing of information that's in front of us","no","stimuli/10-Congruent.jpg","z","","","","","left","z","true"
"","null","html-keyboard-response","125","2.0.0","224617","p7pth7yjlry","bigger","pelican","prior knowledge can influence our processing of information that's in front of us","no","<p>Correct!</p>","null","","","","","","",""
"","null","html-keyboard-response","126","2.0.0","225620","p7pth7yjlry","bigger","pelican","prior knowledge can influence our processing of information that's in front of us","no","<div style=""font-size:60px;"">+</div>","null","","","","","","",""
"","964","image-keyboard-response","127","2.0.0","226587","p7pth7yjlry","bigger","pelican","prior knowledge can influence our processing of information that's in front of us","no","stimuli/1-Inongruent.jpg","m","","","","","right","m","true"
"","null","html-keyboard-response","128","2.0.0","227489","p7pth7yjlry","bigger","pelican","prior knowledge can influence our processing of information that's in front of us","no","<p>Correct!</p>","null","","","","","","",""
"","null","html-keyboard-response","129","2.0.0","228491","p7pth7yjlry","bigger","pelican","prior knowledge can influence our processing of information that's in front of us","no","<div style=""font-size:60px;"">+</div>","null","","","","","","",""
"","817","image-keyboard-response","130","2.0.0","229311","p7pth7yjlry","bigger","pelican","prior knowledge can influence our processing of information that's in front of us","no","stimuli/33-Congruent.jpg","z","","","","","left","z","true"
"","null","html-keyboard-response","131","2.0.0","230213","p7pth7yjlry","bigger","pelican","prior knowledge can influence our processing of information that's in front of us","no","<p>Correct!</p>","null","","","","","","",""
"","null","html-keyboard-response","132","2.0.0","231215","p7pth7yjlry","bigger","pelican","prior knowledge can influence our processing of information that's in front of us","no","<div style=""font-size:60px;"">+</div>","null","","","","","","",""
"","1112","image-keyboard-response","133","2.0.0","232330","p7pth7yjlry","bigger","pelican","prior knowledge can influence our processing of information that's in front of us","no","stimuli/28-Congruent.jpg","z","","","","","left","z","true"
"","null","html-keyboard-response","134","2.0.0","233232","p7pth7yjlry","bigger","pelican","prior knowledge can influence our processing of information that's in front of us","no","<p>Correct!</p>","null","","","","","","",""
"","null","html-keyboard-response","135","2.0.0","234234","p7pth7yjlry","bigger","pelican","prior knowledge can influence our processing of information that's in front of us","no","<div style=""font-size:60px;"">+</div>","null","","","","","","",""
"","639","image-keyboard-response","136","2.0.0","234875","p7pth7yjlry","bigger","pelican","prior knowledge can influence our processing of information that's in front of us","no","stimuli/7-Congruent.jpg","z","","","","","left","z","true"
"","null","html-keyboard-response","137","2.0.0","235778","p7pth7yjlry","bigger","pelican","prior knowledge can influence our processing of information that's in front of us","no","<p>Correct!</p>","null","","","","","","",""
"","null","html-keyboard-response","138","2.0.0","236780","p7pth7yjlry","bigger","pelican","prior knowledge can influence our processing of information that's in front of us","no","<div style=""font-size:60px;"">+</div>","null","","","","","","",""
"","1083","image-keyboard-response","139","2.0.0","237865","p7pth7yjlry","bigger","pelican","prior knowledge can influence our processing of information that's in front of us","no","stimuli/15-Inongruent.jpg","m","","","","","right","m","true"
"","null","html-keyboard-response","140","2.0.0","238766","p7pth7yjlry","bigger","pelican","prior knowledge can influence our processing of information that's in front of us","no","<p>Correct!</p>","null","","","","","","",""
"","null","html-keyboard-response","141","2.0.0","239768","p7pth7yjlry","bigger","pelican","prior knowledge can influence our processing of information that's in front of us","no","<div style=""font-size:60px;"">+</div>","null","","","","","","",""
"","786","image-keyboard-response","142","2.0.0","240557","p7pth7yjlry","bigger","pelican","prior knowledge can influence our processing of information that's in front of us","no","stimuli/22-Inongruent.jpg","m","","","","","right","m","true"
"","null","html-keyboard-response","143","2.0.0","241459","p7pth7yjlry","bigger","pelican","prior knowledge can influence our processing of information that's in front of us","no","<p>Correct!</p>","null","","","","","","",""
"","null","html-keyboard-response","144","2.0.0","242459","p7pth7yjlry","bigger","pelican","prior knowledge can influence our processing of information that's in front of us","no","<div style=""font-size:60px;"">+</div>","null","","","","","","",""
"","622","image-keyboard-response","145","2.0.0","243084","p7pth7yjlry","bigger","pelican","prior knowledge can influence our processing of information that's in front of us","no","stimuli/23-Inongruent.jpg","m","","","","","right","m","true"
"","null","html-keyboard-response","146","2.0.0","243985","p7pth7yjlry","bigger","pelican","prior knowledge can influence our processing of information that's in front of us","no","<p>Correct!</p>","null","","","","","","",""
"","null","html-keyboard-response","147","2.0.0","244987","p7pth7yjlry","bigger","pelican","prior knowledge can influence our processing of information that's in front of us","no","<div style=""font-size:60px;"">+</div>","null","","","","","","",""
"","974","image-keyboard-response","148","2.0.0","245963","p7pth7yjlry","bigger","pelican","prior knowledge can influence our processing of information that's in front of us","no","stimuli/27-Inongruent.jpg","m","","","","","right","m","true"
"","null","html-keyboard-response","149","2.0.0","246865","p7pth7yjlry","bigger","pelican","prior knowledge can influence our processing of information that's in front of us","no","<p>Correct!</p>","null","","","","","","",""
"","null","html-keyboard-response","150","2.0.0","247867","p7pth7yjlry","bigger","pelican","prior knowledge can influence our processing of information that's in front of us","no","<div style=""font-size:60px;"">+</div>","null","","","","","","",""
"","600","image-keyboard-response","151","2.0.0","248469","p7pth7yjlry","bigger","pelican","prior knowledge can influence our processing of information that's in front of us","no","stimuli/30-Inongruent.jpg","m","","","","","right","m","true"
"","null","html-keyboard-response","152","2.0.0","249371","p7pth7yjlry","bigger","pelican","prior knowledge can influence our processing of information that's in front of us","no","<p>Correct!</p>","null","","","","","","",""
"","null","html-keyboard-response","153","2.0.0","250374","p7pth7yjlry","bigger","pelican","prior knowledge can influence our processing of information that's in front of us","no","<div style=""font-size:60px;"">+</div>","null","","","","","","",""
"","3371","image-keyboard-response","154","2.0.0","253749","p7pth7yjlry","bigger","pelican","prior knowledge can influence our processing of information that's in front of us","no","stimuli/13-Congruent.jpg","z","","","","","left","z","true"
"","null","html-keyboard-response","155","2.0.0","254651","p7pth7yjlry","bigger","pelican","prior knowledge can influence our processing of information that's in front of us","no","<p>Correct!</p>","null","","","","","","",""
"","null","html-keyboard-response","156","2.0.0","255653","p7pth7yjlry","bigger","pelican","prior knowledge can influence our processing of information that's in front of us","no","<div style=""font-size:60px;"">+</div>","null","","","","","","",""
"","1021","image-keyboard-response","157","2.0.0","256678","p7pth7yjlry","bigger","pelican","prior knowledge can influence our processing of information that's in front of us","no","stimuli/4-Congruent.jpg","z","","","","","left","z","true"
"","null","html-keyboard-response","158","2.0.0","257580","p7pth7yjlry","bigger","pelican","prior knowledge can influence our processing of information that's in front of us","no","<p>Correct!</p>","null","","","","","","",""
"","null","html-keyboard-response","159","2.0.0","258582","p7pth7yjlry","bigger","pelican","prior knowledge can influence our processing of information that's in front of us","no","<div style=""font-size:60px;"">+</div>","null","","","","","","",""
"","747","image-keyboard-response","160","2.0.0","259333","p7pth7yjlry","bigger","pelican","prior knowledge can influence our processing of information that's in front of us","no","stimuli/12-Congruent.jpg","z","","","","","left","z","true"
"","null","html-keyboard-response","161","2.0.0","260234","p7pth7yjlry","bigger","pelican","prior knowledge can influence our processing of information that's in front of us","no","<p>Correct!</p>","null","","","","","","",""
"","null","html-keyboard-response","162","2.0.0","261237","p7pth7yjlry","bigger","pelican","prior knowledge can influence our processing of information that's in front of us","no","<div style=""font-size:60px;"">+</div>","null","","","","","","",""
"","670","image-keyboard-response","163","2.0.0","261911","p7pth7yjlry","bigger","pelican","prior knowledge can influence our processing of information that's in front of us","no","stimuli/28-Inongruent.jpg","m","","","","","right","m","true"
"","null","html-keyboard-response","164","2.0.0","262812","p7pth7yjlry","bigger","pelican","prior knowledge can influence our processing of information that's in front of us","no","<p>Correct!</p>","null","","","","","","",""
"","null","html-keyboard-response","165","2.0.0","263814","p7pth7yjlry","bigger","pelican","prior knowledge can influence our processing of information that's in front of us","no","<div style=""font-size:60px;"">+</div>","null","","","","","","",""
"","922","image-keyboard-response","166","2.0.0","264740","p7pth7yjlry","bigger","pelican","prior knowledge can influence our processing of information that's in front of us","no","stimuli/32-Congruent.jpg","z","","","","","left","z","true"
"","null","html-keyboard-response","167","2.0.0","265642","p7pth7yjlry","bigger","pelican","prior knowledge can influence our processing of information that's in front of us","no","<p>Correct!</p>","null","","","","","","",""
"","null","html-keyboard-response","168","2.0.0","266644","p7pth7yjlry","bigger","pelican","prior knowledge can influence our processing of information that's in front of us","no","<div style=""font-size:60px;"">+</div>","null","","","","","","",""
"","1066","image-keyboard-response","169","2.0.0","267714","p7pth7yjlry","bigger","pelican","prior knowledge can influence our processing of information that's in front of us","no","stimuli/17-Congruent.jpg","z","","","","","left","z","true"
"","null","html-keyboard-response","170","2.0.0","268616","p7pth7yjlry","bigger","pelican","prior knowledge can influence our processing of information that's in front of us","no","<p>Correct!</p>","null","","","","","","",""
"","null","html-keyboard-response","171","2.0.0","269618","p7pth7yjlry","bigger","pelican","prior knowledge can influence our processing of information that's in front of us","no","<div style=""font-size:60px;"">+</div>","null","","","","","","",""
"","653","image-keyboard-response","172","2.0.0","270275","p7pth7yjlry","bigger","pelican","prior knowledge can influence our processing of information that's in front of us","no","stimuli/17-Inongruent.jpg","m","","","","","right","m","true"
"","null","html-keyboard-response","173","2.0.0","271177","p7pth7yjlry","bigger","pelican","prior knowledge can influence our processing of information that's in front of us","no","<p>Correct!</p>","null","","","","","","",""
"","null","html-keyboard-response","174","2.0.0","272180","p7pth7yjlry","bigger","pelican","prior knowledge can influence our processing of information that's in front of us","no","<div style=""font-size:60px;"">+</div>","null","","","","","","",""
"","642","image-keyboard-response","175","2.0.0","272826","p7pth7yjlry","bigger","pelican","prior knowledge can influence our processing of information that's in front of us","no","stimuli/21-Congruent.jpg","z","","","","","left","z","true"
"","null","html-keyboard-response","176","2.0.0","273728","p7pth7yjlry","bigger","pelican","prior knowledge can influence our processing of information that's in front of us","no","<p>Correct!</p>","null","","","","","","",""
"","null","html-keyboard-response","177","2.0.0","274730","p7pth7yjlry","bigger","pelican","prior knowledge can influence our processing of information that's in front of us","no","<div style=""font-size:60px;"">+</div>","null","","","","","","",""
"","654","image-keyboard-response","178","2.0.0","275388","p7pth7yjlry","bigger","pelican","prior knowledge can influence our processing of information that's in front of us","no","stimuli/5-Inongruent.jpg","m","","","","","right","m","true"
"","null","html-keyboard-response","179","2.0.0","276291","p7pth7yjlry","bigger","pelican","prior knowledge can influence our processing of information that's in front of us","no","<p>Correct!</p>","null","","","","","","",""
"","null","html-keyboard-response","180","2.0.0","277293","p7pth7yjlry","bigger","pelican","prior knowledge can influence our processing of information that's in front of us","no","<div style=""font-size:60px;"">+</div>","null","","","","","","",""
"","907","image-keyboard-response","181","2.0.0","278204","p7pth7yjlry","bigger","pelican","prior knowledge can influence our processing of information that's in front of us","no","stimuli/12-Congruent.jpg","z","","","","","left","z","true"
"","null","html-keyboard-response","182","2.0.0","279107","p7pth7yjlry","bigger","pelican","prior knowledge can influence our processing of information that's in front of us","no","<p>Correct!</p>","null","","","","","","",""
"","null","html-keyboard-response","183","2.0.0","280108","p7pth7yjlry","bigger","pelican","prior knowledge can influence our processing of information that's in front of us","no","<div style=""font-size:60px;"">+</div>","null","","","","","","",""
"","701","image-keyboard-response","184","2.0.0","280813","p7pth7yjlry","bigger","pelican","prior knowledge can influence our processing of information that's in front of us","no","stimuli/32-Congruent.jpg","z","","","","","left","z","true"
"","null","html-keyboard-response","185","2.0.0","281715","p7pth7yjlry","bigger","pelican","prior knowledge can influence our processing of information that's in front of us","no","<p>Correct!</p>","null","","","","","","",""
"","null","html-keyboard-response","186","2.0.0","282717","p7pth7yjlry","bigger","pelican","prior knowledge can influence our processing of information that's in front of us","no","<div style=""font-size:60px;"">+</div>","null","","","","","","",""
"","662","image-keyboard-response","187","2.0.0","283383","p7pth7yjlry","bigger","pelican","prior knowledge can influence our processing of information that's in front of us","no","stimuli/1-Congruent.jpg","z","","","","","left","z","true"
"","null","html-keyboard-response","188","2.0.0","284285","p7pth7yjlry","bigger","pelican","prior knowledge can influence our processing of information that's in front of us","no","<p>Correct!</p>","null","","","","","","",""
"","null","html-keyboard-response","189","2.0.0","285287","p7pth7yjlry","bigger","pelican","prior knowledge can influence our processing of information that's in front of us","no","<div style=""font-size:60px;"">+</div>","null","","","","","","",""
"","645","image-keyboard-response","190","2.0.0","285936","p7pth7yjlry","bigger","pelican","prior knowledge can influence our processing of information that's in front of us","no","stimuli/30-Congruent.jpg","z","","","","","left","z","true"
"","null","html-keyboard-response","191","2.0.0","286837","p7pth7yjlry","bigger","pelican","prior knowledge can influence our processing of information that's in front of us","no","<p>Correct!</p>","null","","","","","","",""
"","null","html-keyboard-response","192","2.0.0","287839","p7pth7yjlry","bigger","pelican","prior knowledge can influence our processing of information that's in front of us","no","<div style=""font-size:60px;"">+</div>","null","","","","","","",""
"","774","image-keyboard-response","193","2.0.0","288616","p7pth7yjlry","bigger","pelican","prior knowledge can influence our processing of information that's in front of us","no","stimuli/18-Inongruent.jpg","m","","","","","right","m","true"
"","null","html-keyboard-response","194","2.0.0","289518","p7pth7yjlry","bigger","pelican","prior knowledge can influence our processing of information that's in front of us","no","<p>Correct!</p>","null","","","","","","",""
"","null","html-keyboard-response","195","2.0.0","290520","p7pth7yjlry","bigger","pelican","prior knowledge can influence our processing of information that's in front of us","no","<div style=""font-size:60px;"">+</div>","null","","","","","","",""
"","611","image-keyboard-response","196","2.0.0","291133","p7pth7yjlry","bigger","pelican","prior knowledge can influence our processing of information that's in front of us","no","stimuli/22-Congruent.jpg","z","","","","","left","z","true"
"","null","html-keyboard-response","197","2.0.0","292034","p7pth7yjlry","bigger","pelican","prior knowledge can influence our processing of information that's in front of us","no","<p>Correct!</p>","null","","","","","","",""
"","null","html-keyboard-response","198","2.0.0","293037","p7pth7yjlry","bigger","pelican","prior knowledge can influence our processing of information that's in front of us","no","<div style=""font-size:60px;"">+</div>","null","","","","","","",""
"","785","image-keyboard-response","199","2.0.0","293824","p7pth7yjlry","bigger","pelican","prior knowledge can influence our processing of information that's in front of us","no","stimuli/5-Congruent.jpg","z","","","","","left","z","true"
"","null","html-keyboard-response","200","2.0.0","294727","p7pth7yjlry","bigger","pelican","prior knowledge can influence our processing of information that's in front of us","no","<p>Correct!</p>","null","","","","","","",""
"","null","html-keyboard-response","201","2.0.0","295729","p7pth7yjlry","bigger","pelican","prior knowledge can influence our processing of information that's in front of us","no","<div style=""font-size:60px;"">+</div>","null","","","","","","",""
"","1045","image-keyboard-response","202","2.0.0","296776","p7pth7yjlry","bigger","pelican","prior knowledge can influence our processing of information that's in front of us","no","stimuli/6-Congruent.jpg","z","","","","","left","z","true"
"","null","html-keyboard-response","203","2.0.0","297678","p7pth7yjlry","bigger","pelican","prior knowledge can influence our processing of information that's in front of us","no","<p>Correct!</p>","null","","","","","","",""
"","null","html-keyboard-response","204","2.0.0","298680","p7pth7yjlry","bigger","pelican","prior knowledge can influence our processing of information that's in front of us","no","<div style=""font-size:60px;"">+</div>","null","","","","","","",""
"","7342","image-keyboard-response","205","2.0.0","306025","p7pth7yjlry","bigger","pelican","prior knowledge can influence our processing of information that's in front of us","no","stimuli/14-Congruent.jpg","z","","","","","left","z","true"
"","null","html-keyboard-response","206","2.0.0","306927","p7pth7yjlry","bigger","pelican","prior knowledge can influence our processing of information that's in front of us","no","<p>Correct!</p>","null","","","","","","",""
"","null","html-keyboard-response","207","2.0.0","307929","p7pth7yjlry","bigger","pelican","prior knowledge can influence our processing of information that's in front of us","no","<div style=""font-size:60px;"">+</div>","null","","","","","","",""
"","896","image-keyboard-response","208","2.0.0","308829","p7pth7yjlry","bigger","pelican","prior knowledge can influence our processing of information that's in front of us","no","stimuli/16-Congruent.jpg","z","","","","","left","z","true"
"","null","html-keyboard-response","209","2.0.0","309731","p7pth7yjlry","bigger","pelican","prior knowledge can influence our processing of information that's in front of us","no","<p>Correct!</p>","null","","","","","","",""
"","null","html-keyboard-response","210","2.0.0","310734","p7pth7yjlry","bigger","pelican","prior knowledge can influence our processing of information that's in front of us","no","<div style=""font-size:60px;"">+</div>","null","","","","","","",""
"","909","image-keyboard-response","211","2.0.0","311646","p7pth7yjlry","bigger","pelican","prior knowledge can influence our processing of information that's in front of us","no","stimuli/6-Congruent.jpg","z","","","","","left","z","true"
"","null","html-keyboard-response","212","2.0.0","312548","p7pth7yjlry","bigger","pelican","prior knowledge can influence our processing of information that's in front of us","no","<p>Correct!</p>","null","","","","","","",""
"","null","html-keyboard-response","213","2.0.0","313551","p7pth7yjlry","bigger","pelican","prior knowledge can influence our processing of information that's in front of us","no","<div style=""font-size:60px;"">+</div>","null","","","","","","",""
"","610","image-keyboard-response","214","2.0.0","314164","p7pth7yjlry","bigger","pelican","prior knowledge can influence our processing of information that's in front of us","no","stimuli/26-Congruent.jpg","z","","","","","left","z","true"
"","null","html-keyboard-response","215","2.0.0","315066","p7pth7yjlry","bigger","pelican","prior knowledge can influence our processing of information that's in front of us","no","<p>Correct!</p>","null","","","","","","",""
"","null","html-keyboard-response","216","2.0.0","316067","p7pth7yjlry","bigger","pelican","prior knowledge can influence our processing of information that's in front of us","no","<div style=""font-size:60px;"">+</div>","null","","","","","","",""
"","697","image-keyboard-response","217","2.0.0","316768","p7pth7yjlry","bigger","pelican","prior knowledge can influence our processing of information that's in front of us","no","stimuli/33-Congruent.jpg","z","","","","","left","z","true"
"","null","html-keyboard-response","218","2.0.0","317671","p7pth7yjlry","bigger","pelican","prior knowledge can influence our processing of information that's in front of us","no","<p>Correct!</p>","null","","","","","","",""
"","null","html-keyboard-response","219","2.0.0","318673","p7pth7yjlry","bigger","pelican","prior knowledge can influence our processing of information that's in front of us","no","<div style=""font-size:60px;"">+</div>","null","","","","","","",""
"","2747","image-keyboard-response","220","2.0.0","321424","p7pth7yjlry","bigger","pelican","prior knowledge can influence our processing of information that's in front of us","no","stimuli/10-Inongruent.jpg","m","","","","","right","m","true"
"","null","html-keyboard-response","221","2.0.0","322326","p7pth7yjlry","bigger","pelican","prior knowledge can influence our processing of information that's in front of us","no","<p>Correct!</p>","null","","","","","","",""
"","null","html-keyboard-response","222","2.0.0","323328","p7pth7yjlry","bigger","pelican","prior knowledge can influence our processing of information that's in front of us","no","<div style=""font-size:60px;"">+</div>","null","","","","","","",""
"","696","image-keyboard-response","223","2.0.0","324029","p7pth7yjlry","bigger","pelican","prior knowledge can influence our processing of information that's in front of us","no","stimuli/5-Inongruent.jpg","m","","","","","right","m","true"
"","null","html-keyboard-response","224","2.0.0","324931","p7pth7yjlry","bigger","pelican","prior knowledge can influence our processing of information that's in front of us","no","<p>Correct!</p>","null","","","","","","",""
"","null","html-keyboard-response","225","2.0.0","325932","p7pth7yjlry","bigger","pelican","prior knowledge can influence our processing of information that's in front of us","no","<div style=""font-size:60px;"">+</div>","null","","","","","","",""
"","663","image-keyboard-response","226","2.0.0","326598","p7pth7yjlry","bigger","pelican","prior knowledge can influence our processing of information that's in front of us","no","stimuli/31-Congruent.jpg","z","","","","","left","z","true"
"","null","html-keyboard-response","227","2.0.0","327500","p7pth7yjlry","bigger","pelican","prior knowledge can influence our processing of information that's in front of us","no","<p>Correct!</p>","null","","","","","","",""
"","null","html-keyboard-response","228","2.0.0","328502","p7pth7yjlry","bigger","pelican","prior knowledge can influence our processing of information that's in front of us","no","<div style=""font-size:60px;"">+</div>","null","","","","","","",""
"","724","image-keyboard-response","229","2.0.0","329230","p7pth7yjlry","bigger","pelican","prior knowledge can influence our processing of information that's in front of us","no","stimuli/24-Congruent.jpg","z","","","","","left","z","true"
"","null","html-keyboard-response","230","2.0.0","330132","p7pth7yjlry","bigger","pelican","prior knowledge can influence our processing of information that's in front of us","no","<p>Correct!</p>","null","","","","","","",""
"","null","html-keyboard-response","231","2.0.0","331134","p7pth7yjlry","bigger","pelican","prior knowledge can influence our processing of information that's in front of us","no","<div style=""font-size:60px;"">+</div>","null","","","","","","",""
"","695","image-keyboard-response","232","2.0.0","331831","p7pth7yjlry","bigger","pelican","prior knowledge can influence our processing of information that's in front of us","no","stimuli/11-Inongruent.jpg","m","","","","","right","m","true"
"","null","html-keyboard-response","233","2.0.0","332734","p7pth7yjlry","bigger","pelican","prior knowledge can influence our processing of information that's in front of us","no","<p>Correct!</p>","null","","","","","","",""
"","null","html-keyboard-response","234","2.0.0","333736","p7pth7yjlry","bigger","pelican","prior knowledge can influence our processing of information that's in front of us","no","<div style=""font-size:60px;"">+</div>","null","","","","","","",""
"","650","image-keyboard-response","235","2.0.0","334390","p7pth7yjlry","bigger","pelican","prior knowledge can influence our processing of information that's in front of us","no","stimuli/35-Congruent.jpg","z","","","","","left","z","true"
"","null","html-keyboard-response","236","2.0.0","335291","p7pth7yjlry","bigger","pelican","prior knowledge can influence our processing of information that's in front of us","no","<p>Correct!</p>","null","","","","","","",""
"","null","html-keyboard-response","237","2.0.0","336293","p7pth7yjlry","bigger","pelican","prior knowledge can influence our processing of information that's in front of us","no","<div style=""font-size:60px;"">+</div>","null","","","","","","",""
"","663","image-keyboard-response","238","2.0.0","336960","p7pth7yjlry","bigger","pelican","prior knowledge can influence our processing of information that's in front of us","no","stimuli/33-Inongruent.jpg","m","","","","","right","m","true"
"","null","html-keyboard-response","239","2.0.0","337863","p7pth7yjlry","bigger","pelican","prior knowledge can influence our processing of information that's in front of us","no","<p>Correct!</p>","null","","","","","","",""
"","null","html-keyboard-response","240","2.0.0","338865","p7pth7yjlry","bigger","pelican","prior knowledge can influence our processing of information that's in front of us","no","<div style=""font-size:60px;"">+</div>","null","","","","","","",""
"","825","image-keyboard-response","241","2.0.0","339694","p7pth7yjlry","bigger","pelican","prior knowledge can influence our processing of information that's in front of us","no","stimuli/18-Congruent.jpg","z","","","","","left","z","true"
"","null","html-keyboard-response","242","2.0.0","340595","p7pth7yjlry","bigger","pelican","prior knowledge can influence our processing of information that's in front of us","no","<p>Correct!</p>","null","","","","","","",""
"","null","html-keyboard-response","243","2.0.0","341597","p7pth7yjlry","bigger","pelican","prior knowledge can influence our processing of information that's in front of us","no","<div style=""font-size:60px;"">+</div>","null","","","","","","",""
"","674","image-keyboard-response","244","2.0.0","342275","p7pth7yjlry","bigger","pelican","prior knowledge can influence our processing of information that's in front of us","no","stimuli/26-Inongruent.jpg","m","","","","","right","m","true"
"","null","html-keyboard-response","245","2.0.0","343177","p7pth7yjlry","bigger","pelican","prior knowledge can influence our processing of information that's in front of us","no","<p>Correct!</p>","null","","","","","","",""
"","null","html-keyboard-response","246","2.0.0","344179","p7pth7yjlry","bigger","pelican","prior knowledge can influence our processing of information that's in front of us","no","<div style=""font-size:60px;"">+</div>","null","","","","","","",""
"","820","image-keyboard-response","247","2.0.0","345002","p7pth7yjlry","bigger","pelican","prior knowledge can influence our processing of information that's in front of us","no","stimuli/3-Inongruent.jpg","m","","","","","right","m","true"
"","null","html-keyboard-response","248","2.0.0","345903","p7pth7yjlry","bigger","pelican","prior knowledge can influence our processing of information that's in front of us","no","<p>Correct!</p>","null","","","","","","",""
"","null","html-keyboard-response","249","2.0.0","346905","p7pth7yjlry","bigger","pelican","prior knowledge can influence our processing of information that's in front of us","no","<div style=""font-size:60px;"">+</div>","null","","","","","","",""
"","948","image-keyboard-response","250","2.0.0","347857","p7pth7yjlry","bigger","pelican","prior knowledge can influence our processing of information that's in front of us","no","stimuli/22-Inongruent.jpg","m","","","","","right","m","true"
"","null","html-keyboard-response","251","2.0.0","348759","p7pth7yjlry","bigger","pelican","prior knowledge can influence our processing of information that's in front of us","no","<p>Correct!</p>","null","","","","","","",""
"","null","html-keyboard-response","252","2.0.0","349760","p7pth7yjlry","bigger","pelican","prior knowledge can influence our processing of information that's in front of us","no","<div style=""font-size:60px;"">+</div>","null","","","","","","",""
"","1058","image-keyboard-response","253","2.0.0","350821","p7pth7yjlry","bigger","pelican","prior knowledge can influence our processing of information that's in front of us","no","stimuli/19-Congruent.jpg","z","","","","","left","z","true"
"","null","html-keyboard-response","254","2.0.0","351722","p7pth7yjlry","bigger","pelican","prior knowledge can influence our processing of information that's in front of us","no","<p>Correct!</p>","null","","","","","","",""
"","null","html-keyboard-response","255","2.0.0","352723","p7pth7yjlry","bigger","pelican","prior knowledge can influence our processing of information that's in front of us","no","<div style=""font-size:60px;"">+</div>","null","","","","","","",""
"","661","image-keyboard-response","256","2.0.0","353386","p7pth7yjlry","bigger","pelican","prior knowledge can influence our processing of information that's in front of us","no","stimuli/24-Congruent.jpg","z","","","","","left","z","true"
"","null","html-keyboard-response","257","2.0.0","354289","p7pth7yjlry","bigger","pelican","prior knowledge can influence our processing of information that's in front of us","no","<p>Correct!</p>","null","","","","","","",""
"","null","html-keyboard-response","258","2.0.0","355291","p7pth7yjlry","bigger","pelican","prior knowledge can influence our processing of information that's in front of us","no","<div style=""font-size:60px;"">+</div>","null","","","","","","",""
"","942","image-keyboard-response","259","2.0.0","356235","p7pth7yjlry","bigger","pelican","prior knowledge can influence our processing of information that's in front of us","no","stimuli/1-Congruent.jpg","z","","","","","left","z","true"
"","null","html-keyboard-response","260","2.0.0","357137","p7pth7yjlry","bigger","pelican","prior knowledge can influence our processing of information that's in front of us","no","<p>Correct!</p>","null","","","","","","",""
"","null","html-keyboard-response","261","2.0.0","358138","p7pth7yjlry","bigger","pelican","prior knowledge can influence our processing of information that's in front of us","no","<div style=""font-size:60px;"">+</div>","null","","","","","","",""
"","720","image-keyboard-response","262","2.0.0","358860","p7pth7yjlry","bigger","pelican","prior knowledge can influence our processing of information that's in front of us","no","stimuli/18-Inongruent.jpg","m","","","","","right","m","true"
"","null","html-keyboard-response","263","2.0.0","359760","p7pth7yjlry","bigger","pelican","prior knowledge can influence our processing of information that's in front of us","no","<p>Correct!</p>","null","","","","","","",""
"","null","html-keyboard-response","264","2.0.0","360763","p7pth7yjlry","bigger","pelican","prior knowledge can influence our processing of information that's in front of us","no","<div style=""font-size:60px;"">+</div>","null","","","","","","",""
"","1051","image-keyboard-response","265","2.0.0","361816","p7pth7yjlry","bigger","pelican","prior knowledge can influence our processing of information that's in front of us","no","stimuli/12-Inongruent.jpg","m","","","","","right","m","true"
"","null","html-keyboard-response","266","2.0.0","362717","p7pth7yjlry","bigger","pelican","prior knowledge can influence our processing of information that's in front of us","no","<p>Correct!</p>","null","","","","","","",""
"","null","html-keyboard-response","267","2.0.0","363718","p7pth7yjlry","bigger","pelican","prior knowledge can influence our processing of information that's in front of us","no","<div style=""font-size:60px;"">+</div>","null","","","","","","",""
"","902","image-keyboard-response","268","2.0.0","364623","p7pth7yjlry","bigger","pelican","prior knowledge can influence our processing of information that's in front of us","no","stimuli/26-Inongruent.jpg","m","","","","","right","m","true"
"","null","html-keyboard-response","269","2.0.0","365525","p7pth7yjlry","bigger","pelican","prior knowledge can influence our processing of information that's in front of us","no","<p>Correct!</p>","null","","","","","","",""
"","null","html-keyboard-response","270","2.0.0","366527","p7pth7yjlry","bigger","pelican","prior knowledge can influence our processing of information that's in front of us","no","<div style=""font-size:60px;"">+</div>","null","","","","","","",""
"","660","image-keyboard-response","271","2.0.0","367189","p7pth7yjlry","bigger","pelican","prior knowledge can influence our processing of information that's in front of us","no","stimuli/27-Congruent.jpg","z","","","","","left","z","true"
"","null","html-keyboard-response","272","2.0.0","368090","p7pth7yjlry","bigger","pelican","prior knowledge can influence our processing of information that's in front of us","no","<p>Correct!</p>","null","","","","","","",""
"","null","html-keyboard-response","273","2.0.0","369092","p7pth7yjlry","bigger","pelican","prior knowledge can influence our processing of information that's in front of us","no","<div style=""font-size:60px;"">+</div>","null","","","","","","",""
"","757","image-keyboard-response","274","2.0.0","369852","p7pth7yjlry","bigger","pelican","prior knowledge can influence our processing of information that's in front of us","no","stimuli/2-Inongruent.jpg","m","","","","","right","m","true"
"","null","html-keyboard-response","275","2.0.0","370754","p7pth7yjlry","bigger","pelican","prior knowledge can influence our processing of information that's in front of us","no","<p>Correct!</p>","null","","","","","","",""
"","null","html-keyboard-response","276","2.0.0","371755","p7pth7yjlry","bigger","pelican","prior knowledge can influence our processing of information that's in front of us","no","<div style=""font-size:60px;"">+</div>","null","","","","","","",""
"","600","image-keyboard-response","277","2.0.0","372357","p7pth7yjlry","bigger","pelican","prior knowledge can influence our processing of information that's in front of us","no","stimuli/4-Congruent.jpg","z","","","","","left","z","true"
"","null","html-keyboard-response","278","2.0.0","373260","p7pth7yjlry","bigger","pelican","prior knowledge can influence our processing of information that's in front of us","no","<p>Correct!</p>","null","","","","","","",""
"","null","html-keyboard-response","279","2.0.0","374262","p7pth7yjlry","bigger","pelican","prior knowledge can influence our processing of information that's in front of us","no","<div style=""font-size:60px;"">+</div>","null","","","","","","",""
"","758","image-keyboard-response","280","2.0.0","375023","p7pth7yjlry","bigger","pelican","prior knowledge can influence our processing of information that's in front of us","no","stimuli/29-Inongruent.jpg","m","","","","","right","m","true"
"","null","html-keyboard-response","281","2.0.0","375925","p7pth7yjlry","bigger","pelican","prior knowledge can influence our processing of information that's in front of us","no","<p>Correct!</p>","null","","","","","","",""
"","null","html-keyboard-response","282","2.0.0","376925","p7pth7yjlry","bigger","pelican","prior knowledge can influence our processing of information that's in front of us","no","<div style=""font-size:60px;"">+</div>","null","","","","","","",""
"","921","image-keyboard-response","283","2.0.0","377848","p7pth7yjlry","bigger","pelican","prior knowledge can influence our processing of information that's in front of us","no","stimuli/9-Inongruent.jpg","m","","","","","right","m","true"
"","null","html-keyboard-response","284","2.0.0","378751","p7pth7yjlry","bigger","pelican","prior knowledge can influence our processing of information that's in front of us","no","<p>Correct!</p>","null","","","","","","",""
"","null","html-keyboard-response","285","2.0.0","379753","p7pth7yjlry","bigger","pelican","prior knowledge can influence our processing of information that's in front of us","no","<div style=""font-size:60px;"">+</div>","null","","","","","","",""
"","677","image-keyboard-response","286","2.0.0","380433","p7pth7yjlry","bigger","pelican","prior knowledge can influence our processing of information that's in front of us","no","stimuli/32-Inongruent.jpg","m","","","","","right","m","true"
"","null","html-keyboard-response","287","2.0.0","381334","p7pth7yjlry","bigger","pelican","prior knowledge can influence our processing of information that's in front of us","no","<p>Correct!</p>","null","","","","","","",""
"","null","html-keyboard-response","288","2.0.0","382335","p7pth7yjlry","bigger","pelican","prior knowledge can influence our processing of information that's in front of us","no","<div style=""font-size:60px;"">+</div>","null","","","","","","",""
"","794","image-keyboard-response","289","2.0.0","383132","p7pth7yjlry","bigger","pelican","prior knowledge can influence our processing of information that's in front of us","no","stimuli/34-Inongruent.jpg","m","","","","","right","m","true"
"","null","html-keyboard-response","290","2.0.0","384033","p7pth7yjlry","bigger","pelican","prior knowledge can influence our processing of information that's in front of us","no","<p>Correct!</p>","null","","","","","","",""
"","null","html-keyboard-response","291","2.0.0","385034","p7pth7yjlry","bigger","pelican","prior knowledge can influence our processing of information that's in front of us","no","<div style=""font-size:60px;"">+</div>","null","","","","","","",""
"","816","image-keyboard-response","292","2.0.0","385854","p7pth7yjlry","bigger","pelican","prior knowledge can influence our processing of information that's in front of us","no","stimuli/10-Congruent.jpg","z","","","","","left","z","true"
"","null","html-keyboard-response","293","2.0.0","386756","p7pth7yjlry","bigger","pelican","prior knowledge can influence our processing of information that's in front of us","no","<p>Correct!</p>","null","","","","","","",""
"","null","html-keyboard-response","294","2.0.0","387757","p7pth7yjlry","bigger","pelican","prior knowledge can influence our processing of information that's in front of us","no","<div style=""font-size:60px;"">+</div>","null","","","","","","",""
"","668","image-keyboard-response","295","2.0.0","388428","p7pth7yjlry","bigger","pelican","prior knowledge can influence our processing of information that's in front of us","no","stimuli/8-Inongruent.jpg","m","","","","","right","m","true"
"","null","html-keyboard-response","296","2.0.0","389330","p7pth7yjlry","bigger","pelican","prior knowledge can influence our processing of information that's in front of us","no","<p>Correct!</p>","null","","","","","","",""
"","null","html-keyboard-response","297","2.0.0","390332","p7pth7yjlry","bigger","pelican","prior knowledge can influence our processing of information that's in front of us","no","<div style=""font-size:60px;"">+</div>","null","","","","","","",""
"","690","image-keyboard-response","298","2.0.0","391026","p7pth7yjlry","bigger","pelican","prior knowledge can influence our processing of information that's in front of us","no","stimuli/21-Inongruent.jpg","m","","","","","right","m","true"
"","null","html-keyboard-response","299","2.0.0","391928","p7pth7yjlry","bigger","pelican","prior knowledge can influence our processing of information that's in front of us","no","<p>Correct!</p>","null","","","","","","",""
"","null","html-keyboard-response","300","2.0.0","392931","p7pth7yjlry","bigger","pelican","prior knowledge can influence our processing of information that's in front of us","no","<div style=""font-size:60px;"">+</div>","null","","","","","","",""
"","708","image-keyboard-response","301","2.0.0","393643","p7pth7yjlry","bigger","pelican","prior knowledge can influence our processing of information that's in front of us","no","stimuli/21-Congruent.jpg","z","","","","","left","z","true"
"","null","html-keyboard-response","302","2.0.0","394545","p7pth7yjlry","bigger","pelican","prior knowledge can influence our processing of information that's in front of us","no","<p>Correct!</p>","null","","","","","","",""
"","null","html-keyboard-response","303","2.0.0","395548","p7pth7yjlry","bigger","pelican","prior knowledge can influence our processing of information that's in front of us","no","<div style=""font-size:60px;"">+</div>","null","","","","","","",""
"","855","image-keyboard-response","304","2.0.0","396407","p7pth7yjlry","bigger","pelican","prior knowledge can influence our processing of information that's in front of us","no","stimuli/29-Inongruent.jpg","m","","","","","right","m","true"
"","null","html-keyboard-response","305","2.0.0","397308","p7pth7yjlry","bigger","pelican","prior knowledge can influence our processing of information that's in front of us","no","<p>Correct!</p>","null","","","","","","",""
"","null","html-keyboard-response","306","2.0.0","398310","p7pth7yjlry","bigger","pelican","prior knowledge can influence our processing of information that's in front of us","no","<div style=""font-size:60px;"">+</div>","null","","","","","","",""
"","841","image-keyboard-response","307","2.0.0","399155","p7pth7yjlry","bigger","pelican","prior knowledge can influence our processing of information that's in front of us","no","stimuli/14-Congruent.jpg","z","","","","","left","z","true"
"","null","html-keyboard-response","308","2.0.0","400057","p7pth7yjlry","bigger","pelican","prior knowledge can influence our processing of information that's in front of us","no","<p>Correct!</p>","null","","","","","","",""
"","null","html-keyboard-response","309","2.0.0","401059","p7pth7yjlry","bigger","pelican","prior knowledge can influence our processing of information that's in front of us","no","<div style=""font-size:60px;"">+</div>","null","","","","","","",""
"","768","image-keyboard-response","310","2.0.0","401831","p7pth7yjlry","bigger","pelican","prior knowledge can influence our processing of information that's in front of us","no","stimuli/25-Congruent.jpg","z","","","","","left","z","true"
"","null","html-keyboard-response","311","2.0.0","402733","p7pth7yjlry","bigger","pelican","prior knowledge can influence our processing of information that's in front of us","no","<p>Correct!</p>","null","","","","","","",""
"","null","html-keyboard-response","312","2.0.0","403735","p7pth7yjlry","bigger","pelican","prior knowledge can influence our processing of information that's in front of us","no","<div style=""font-size:60px;"">+</div>","null","","","","","","",""
"","607","image-keyboard-response","313","2.0.0","404344","p7pth7yjlry","bigger","pelican","prior knowledge can influence our processing of information that's in front of us","no","stimuli/27-Congruent.jpg","z","","","","","left","z","true"
"","null","html-keyboard-response","314","2.0.0","405247","p7pth7yjlry","bigger","pelican","prior knowledge can influence our processing of information that's in front of us","no","<p>Correct!</p>","null","","","","","","",""
"","null","html-keyboard-response","315","2.0.0","406249","p7pth7yjlry","bigger","pelican","prior knowledge can influence our processing of information that's in front of us","no","<div style=""font-size:60px;"">+</div>","null","","","","","","",""
"","593","image-keyboard-response","316","2.0.0","406846","p7pth7yjlry","bigger","pelican","prior knowledge can influence our processing of information that's in front of us","no","stimuli/23-Congruent.jpg","z","","","","","left","z","true"
"","null","html-keyboard-response","317","2.0.0","407748","p7pth7yjlry","bigger","pelican","prior knowledge can influence our processing of information that's in front of us","no","<p>Correct!</p>","null","","","","","","",""
"","null","html-keyboard-response","318","2.0.0","408749","p7pth7yjlry","bigger","pelican","prior knowledge can influence our processing of information that's in front of us","no","<div style=""font-size:60px;"">+</div>","null","","","","","","",""
"","802","image-keyboard-response","319","2.0.0","409555","p7pth7yjlry","bigger","pelican","prior knowledge can influence our processing of information that's in front of us","no","stimuli/16-Congruent.jpg","z","","","","","left","z","true"
"","null","html-keyboard-response","320","2.0.0","410457","p7pth7yjlry","bigger","pelican","prior knowledge can influence our processing of information that's in front of us","no","<p>Correct!</p>","null","","","","","","",""
"","null","html-keyboard-response","321","2.0.0","411459","p7pth7yjlry","bigger","pelican","prior knowledge can influence our processing of information that's in front of us","no","<div style=""font-size:60px;"">+</div>","null","","","","","","",""
"","941","image-keyboard-response","322","2.0.0","412404","p7pth7yjlry","bigger","pelican","prior knowledge can influence our processing of information that's in front of us","no","stimuli/14-Inongruent.jpg","m","","","","","right","m","true"
"","null","html-keyboard-response","323","2.0.0","413307","p7pth7yjlry","bigger","pelican","prior knowledge can influence our processing of information that's in front of us","no","<p>Correct!</p>","null","","","","","","",""
"","null","html-keyboard-response","324","2.0.0","414309","p7pth7yjlry","bigger","pelican","prior knowledge can influence our processing of information that's in front of us","no","<div style=""font-size:60px;"">+</div>","null","","","","","","",""
"","654","image-keyboard-response","325","2.0.0","414965","p7pth7yjlry","bigger","pelican","prior knowledge can influence our processing of information that's in front of us","no","stimuli/9-Congruent.jpg","z","","","","","left","z","true"
"","null","html-keyboard-response","326","2.0.0","415867","p7pth7yjlry","bigger","pelican","prior knowledge can influence our processing of information that's in front of us","no","<p>Correct!</p>","null","","","","","","",""
"","null","html-keyboard-response","327","2.0.0","416869","p7pth7yjlry","bigger","pelican","prior knowledge can influence our processing of information that's in front of us","no","<div style=""font-size:60px;"">+</div>","null","","","","","","",""
"","624","image-keyboard-response","328","2.0.0","417497","p7pth7yjlry","bigger","pelican","prior knowledge can influence our processing of information that's in front of us","no","stimuli/23-Inongruent.jpg","m","","","","","right","m","true"
"","null","html-keyboard-response","329","2.0.0","418398","p7pth7yjlry","bigger","pelican","prior knowledge can influence our processing of information that's in front of us","no","<p>Correct!</p>","null","","","","","","",""
"","null","html-keyboard-response","330","2.0.0","419401","p7pth7yjlry","bigger","pelican","prior knowledge can influence our processing of information that's in front of us","no","<div style=""font-size:60px;"">+</div>","null","","","","","","",""
"","626","image-keyboard-response","331","2.0.0","420031","p7pth7yjlry","bigger","pelican","prior knowledge can influence our processing of information that's in front of us","no","stimuli/16-Inongruent.jpg","m","","","","","right","m","true"
"","null","html-keyboard-response","332","2.0.0","420934","p7pth7yjlry","bigger","pelican","prior knowledge can influence our processing of information that's in front of us","no","<p>Correct!</p>","null","","","","","","",""
"","null","html-keyboard-response","333","2.0.0","421935","p7pth7yjlry","bigger","pelican","prior knowledge can influence our processing of information that's in front of us","no","<div style=""font-size:60px;"">+</div>","null","","","","","","",""
"","919","image-keyboard-response","334","2.0.0","422857","p7pth7yjlry","bigger","pelican","prior knowledge can influence our processing of information that's in front of us","no","stimuli/3-Congruent.jpg","z","","","","","left","z","true"
"","null","html-keyboard-response","335","2.0.0","423759","p7pth7yjlry","bigger","pelican","prior knowledge can influence our processing of information that's in front of us","no","<p>Correct!</p>","null","","","","","","",""
"","null","html-keyboard-response","336","2.0.0","424762","p7pth7yjlry","bigger","pelican","prior knowledge can influence our processing of information that's in front of us","no","<div style=""font-size:60px;"">+</div>","null","","","","","","",""
"","832","image-keyboard-response","337","2.0.0","425598","p7pth7yjlry","bigger","pelican","prior knowledge can influence our processing of information that's in front of us","no","stimuli/7-Inongruent.jpg","m","","","","","right","m","true"
"","null","html-keyboard-response","338","2.0.0","426500","p7pth7yjlry","bigger","pelican","prior knowledge can influence our processing of information that's in front of us","no","<p>Correct!</p>","null","","","","","","",""
"","null","html-keyboard-response","339","2.0.0","427502","p7pth7yjlry","bigger","pelican","prior knowledge can influence our processing of information that's in front of us","no","<div style=""font-size:60px;"">+</div>","null","","","","","","",""
"","551","image-keyboard-response","340","2.0.0","428057","p7pth7yjlry","bigger","pelican","prior knowledge can influence our processing of information that's in front of us","no","stimuli/2-Congruent.jpg","z","","","","","left","z","true"
"","null","html-keyboard-response","341","2.0.0","428959","p7pth7yjlry","bigger","pelican","prior knowledge can influence our processing of information that's in front of us","no","<p>Correct!</p>","null","","","","","","",""
"","null","html-keyboard-response","342","2.0.0","429962","p7pth7yjlry","bigger","pelican","prior knowledge can influence our processing of information that's in front of us","no","<div style=""font-size:60px;"">+</div>","null","","","","","","",""
"","699","image-keyboard-response","343","2.0.0","430665","p7pth7yjlry","bigger","pelican","prior knowledge can influence our processing of information that's in front of us","no","stimuli/31-Inongruent.jpg","m","","","","","right","m","true"
"","null","html-keyboard-response","344","2.0.0","431566","p7pth7yjlry","bigger","pelican","prior knowledge can influence our processing of information that's in front of us","no","<p>Correct!</p>","null","","","","","","",""
"","null","html-keyboard-response","345","2.0.0","432569","p7pth7yjlry","bigger","pelican","prior knowledge can influence our processing of information that's in front of us","no","<div style=""font-size:60px;"">+</div>","null","","","","","","",""
"","1262","image-keyboard-response","346","2.0.0","433834","p7pth7yjlry","bigger","pelican","prior knowledge can influence our processing of information that's in front of us","no","stimuli/13-Congruent.jpg","z","","","","","left","z","true"
"","null","html-keyboard-response","347","2.0.0","434736","p7pth7yjlry","bigger","pelican","prior knowledge can influence our processing of information that's in front of us","no","<p>Correct!</p>","null","","","","","","",""
"","null","html-keyboard-response","348","2.0.0","435737","p7pth7yjlry","bigger","pelican","prior knowledge can influence our processing of information that's in front of us","no","<div style=""font-size:60px;"">+</div>","null","","","","","","",""
"","995","image-keyboard-response","349","2.0.0","436734","p7pth7yjlry","bigger","pelican","prior knowledge can influence our processing of information that's in front of us","no","stimuli/7-Inongruent.jpg","m","","","","","right","m","true"
"","null","html-keyboard-response","350","2.0.0","437637","p7pth7yjlry","bigger","pelican","prior knowledge can influence our processing of information that's in front of us","no","<p>Correct!</p>","null","","","","","","",""
"","null","html-keyboard-response","351","2.0.0","438639","p7pth7yjlry","bigger","pelican","prior knowledge can influence our processing of information that's in front of us","no","<div style=""font-size:60px;"">+</div>","null","","","","","","",""
"","807","image-keyboard-response","352","2.0.0","439449","p7pth7yjlry","bigger","pelican","prior knowledge can influence our processing of information that's in front of us","no","stimuli/24-Inongruent.jpg","m","","","","","right","m","true"
"","null","html-keyboard-response","353","2.0.0","440351","p7pth7yjlry","bigger","pelican","prior knowledge can influence our processing of information that's in front of us","no","<p>Correct!</p>","null","","","","","","",""
"","null","html-keyboard-response","354","2.0.0","441353","p7pth7yjlry","bigger","pelican","prior knowledge can influence our processing of information that's in front of us","no","<div style=""font-size:60px;"">+</div>","null","","","","","","",""
"","688","image-keyboard-response","355","2.0.0","442044","p7pth7yjlry","bigger","pelican","prior knowledge can influence our processing of information that's in front of us","no","stimuli/31-Inongruent.jpg","m","","","","","right","m","true"
"","null","html-keyboard-response","356","2.0.0","442946","p7pth7yjlry","bigger","pelican","prior knowledge can influence our processing of information that's in front of us","no","<p>Correct!</p>","null","","","","","","",""
"","null","html-keyboard-response","357","2.0.0","443948","p7pth7yjlry","bigger","pelican","prior knowledge can influence our processing of information that's in front of us","no","<div style=""font-size:60px;"">+</div>","null","","","","","","",""
"","621","image-keyboard-response","358","2.0.0","444574","p7pth7yjlry","bigger","pelican","prior knowledge can influence our processing of information that's in front of us","no","stimuli/36-Inongruent.jpg","m","","","","","right","m","true"
"","null","html-keyboard-response","359","2.0.0","445477","p7pth7yjlry","bigger","pelican","prior knowledge can influence our processing of information that's in front of us","no","<p>Correct!</p>","null","","","","","","",""
"","null","html-keyboard-response","360","2.0.0","446478","p7pth7yjlry","bigger","pelican","prior knowledge can influence our processing of information that's in front of us","no","<div style=""font-size:60px;"">+</div>","null","","","","","","",""
"","759","image-keyboard-response","361","2.0.0","447240","p7pth7yjlry","bigger","pelican","prior knowledge can influence our processing of information that's in front of us","no","stimuli/35-Congruent.jpg","z","","","","","left","z","true"
"","null","html-keyboard-response","362","2.0.0","448142","p7pth7yjlry","bigger","pelican","prior knowledge can influence our processing of information that's in front of us","no","<p>Correct!</p>","null","","","","","","",""
"","null","html-keyboard-response","363","2.0.0","449144","p7pth7yjlry","bigger","pelican","prior knowledge can influence our processing of information that's in front of us","no","<div style=""font-size:60px;"">+</div>","null","","","","","","",""
"","729","image-keyboard-response","364","2.0.0","449877","p7pth7yjlry","bigger","pelican","prior knowledge can influence our processing of information that's in front of us","no","stimuli/20-Inongruent.jpg","m","","","","","right","m","true"
"","null","html-keyboard-response","365","2.0.0","450778","p7pth7yjlry","bigger","pelican","prior knowledge can influence our processing of information that's in front of us","no","<p>Correct!</p>","null","","","","","","",""
"","null","html-keyboard-response","366","2.0.0","451781","p7pth7yjlry","bigger","pelican","prior knowledge can influence our processing of information that's in front of us","no","<div style=""font-size:60px;"">+</div>","null","","","","","","",""
"","779","image-keyboard-response","367","2.0.0","452563","p7pth7yjlry","bigger","pelican","prior knowledge can influence our processing of information that's in front of us","no","stimuli/21-Inongruent.jpg","m","","","","","right","m","true"
"","null","html-keyboard-response","368","2.0.0","453465","p7pth7yjlry","bigger","pelican","prior knowledge can influence our processing of information that's in front of us","no","<p>Correct!</p>","null","","","","","","",""
"","null","html-keyboard-response","369","2.0.0","454468","p7pth7yjlry","bigger","pelican","prior knowledge can influence our processing of information that's in front of us","no","<div style=""font-size:60px;"">+</div>","null","","","","","","",""
"","660","image-keyboard-response","370","2.0.0","455131","p7pth7yjlry","bigger","pelican","prior knowledge can influence our processing of information that's in front of us","no","stimuli/4-Inongruent.jpg","m","","","","","right","m","true"
"","null","html-keyboard-response","371","2.0.0","456033","p7pth7yjlry","bigger","pelican","prior knowledge can influence our processing of information that's in front of us","no","<p>Correct!</p>","null","","","","","","",""
"","null","html-keyboard-response","372","2.0.0","457035","p7pth7yjlry","bigger","pelican","prior knowledge can influence our processing of information that's in front of us","no","<div style=""font-size:60px;"">+</div>","null","","","","","","",""
"","683","image-keyboard-response","373","2.0.0","457722","p7pth7yjlry","bigger","pelican","prior knowledge can influence our processing of information that's in front of us","no","stimuli/25-Inongruent.jpg","m","","","","","right","m","true"
"","null","html-keyboard-response","374","2.0.0","458624","p7pth7yjlry","bigger","pelican","prior knowledge can influence our processing of information that's in front of us","no","<p>Correct!</p>","null","","","","","","",""
"","null","html-keyboard-response","375","2.0.0","459627","p7pth7yjlry","bigger","pelican","prior knowledge can influence our processing of information that's in front of us","no","<div style=""font-size:60px;"">+</div>","null","","","","","","",""
"","629","image-keyboard-response","376","2.0.0","460260","p7pth7yjlry","bigger","pelican","prior knowledge can influence our processing of information that's in front of us","no","stimuli/36-Congruent.jpg","z","","","","","left","z","true"
"","null","html-keyboard-response","377","2.0.0","461162","p7pth7yjlry","bigger","pelican","prior knowledge can influence our processing of information that's in front of us","no","<p>Correct!</p>","null","","","","","","",""
"","null","html-keyboard-response","378","2.0.0","462164","p7pth7yjlry","bigger","pelican","prior knowledge can influence our processing of information that's in front of us","no","<div style=""font-size:60px;"">+</div>","null","","","","","","",""
"","616","image-keyboard-response","379","2.0.0","462783","p7pth7yjlry","bigger","pelican","prior knowledge can influence our processing of information that's in front of us","no","stimuli/9-Congruent.jpg","z","","","","","left","z","true"
"","null","html-keyboard-response","380","2.0.0","463685","p7pth7yjlry","bigger","pelican","prior knowledge can influence our processing of information that's in front of us","no","<p>Correct!</p>","null","","","","","","",""
"","null","html-keyboard-response","381","2.0.0","464688","p7pth7yjlry","bigger","pelican","prior knowledge can influence our processing of information that's in front of us","no","<div style=""font-size:60px;"">+</div>","null","","","","","","",""
"","635","image-keyboard-response","382","2.0.0","465326","p7pth7yjlry","bigger","pelican","prior knowledge can influence our processing of information that's in front of us","no","stimuli/34-Inongruent.jpg","m","","","","","right","m","true"
"","null","html-keyboard-response","383","2.0.0","466228","p7pth7yjlry","bigger","pelican","prior knowledge can influence our processing of information that's in front of us","no","<p>Correct!</p>","null","","","","","","",""
"","null","html-keyboard-response","384","2.0.0","467231","p7pth7yjlry","bigger","pelican","prior knowledge can influence our processing of information that's in front of us","no","<div style=""font-size:60px;"">+</div>","null","","","","","","",""
"","679","image-keyboard-response","385","2.0.0","467913","p7pth7yjlry","bigger","pelican","prior knowledge can influence our processing of information that's in front of us","no","stimuli/2-Inongruent.jpg","m","","","","","right","m","true"
"","null","html-keyboard-response","386","2.0.0","468815","p7pth7yjlry","bigger","pelican","prior knowledge can influence our processing of information that's in front of us","no","<p>Correct!</p>","null","","","","","","",""
"","null","html-keyboard-response","387","2.0.0","469816","p7pth7yjlry","bigger","pelican","prior knowledge can influence our processing of information that's in front of us","no","<div style=""font-size:60px;"">+</div>","null","","","","","","",""
"","786","image-keyboard-response","388","2.0.0","470605","p7pth7yjlry","bigger","pelican","prior knowledge can influence our processing of information that's in front of us","no","stimuli/32-Inongruent.jpg","m","","","","","right","m","true"
"","null","html-keyboard-response","389","2.0.0","471506","p7pth7yjlry","bigger","pelican","prior knowledge can influence our processing of information that's in front of us","no","<p>Correct!</p>","null","","","","","","",""
"","null","html-keyboard-response","390","2.0.0","472507","p7pth7yjlry","bigger","pelican","prior knowledge can influence our processing of information that's in front of us","no","<div style=""font-size:60px;"">+</div>","null","","","","","","",""
"","685","image-keyboard-response","391","2.0.0","473195","p7pth7yjlry","bigger","pelican","prior knowledge can influence our processing of information that's in front of us","no","stimuli/27-Inongruent.jpg","m","","","","","right","m","true"
"","null","html-keyboard-response","392","2.0.0","474096","p7pth7yjlry","bigger","pelican","prior knowledge can influence our processing of information that's in front of us","no","<p>Correct!</p>","null","","","","","","",""
"","null","html-keyboard-response","393","2.0.0","475098","p7pth7yjlry","bigger","pelican","prior knowledge can influence our processing of information that's in front of us","no","<div style=""font-size:60px;"">+</div>","null","","","","","","",""
"","723","image-keyboard-response","394","2.0.0","475823","p7pth7yjlry","bigger","pelican","prior knowledge can influence our processing of information that's in front of us","no","stimuli/20-Congruent.jpg","z","","","","","left","z","true"
"","null","html-keyboard-response","395","2.0.0","476725","p7pth7yjlry","bigger","pelican","prior knowledge can influence our processing of information that's in front of us","no","<p>Correct!</p>","null","","","","","","",""
"","null","html-keyboard-response","396","2.0.0","477726","p7pth7yjlry","bigger","pelican","prior knowledge can influence our processing of information that's in front of us","no","<div style=""font-size:60px;"">+</div>","null","","","","","","",""
"","639","image-keyboard-response","397","2.0.0","478367","p7pth7yjlry","bigger","pelican","prior knowledge can influence our processing of information that's in front of us","no","stimuli/3-Inongruent.jpg","m","","","","","right","m","true"
"","null","html-keyboard-response","398","2.0.0","479268","p7pth7yjlry","bigger","pelican","prior knowledge can influence our processing of information that's in front of us","no","<p>Correct!</p>","null","","","","","","",""
"","null","html-keyboard-response","399","2.0.0","480270","p7pth7yjlry","bigger","pelican","prior knowledge can influence our processing of information that's in front of us","no","<div style=""font-size:60px;"">+</div>","null","","","","","","",""
"","735","image-keyboard-response","400","2.0.0","481007","p7pth7yjlry","bigger","pelican","prior knowledge can influence our processing of information that's in front of us","no","stimuli/25-Inongruent.jpg","m","","","","","right","m","true"
"","null","html-keyboard-response","401","2.0.0","481909","p7pth7yjlry","bigger","pelican","prior knowledge can influence our processing of information that's in front of us","no","<p>Correct!</p>","null","","","","","","",""
"","null","html-keyboard-response","402","2.0.0","482911","p7pth7yjlry","bigger","pelican","prior knowledge can influence our processing of information that's in front of us","no","<div style=""font-size:60px;"">+</div>","null","","","","","","",""
"","752","image-keyboard-response","403","2.0.0","483665","p7pth7yjlry","bigger","pelican","prior knowledge can influence our processing of information that's in front of us","no","stimuli/2-Congruent.jpg","z","","","","","left","z","true"
"","null","html-keyboard-response","404","2.0.0","484567","p7pth7yjlry","bigger","pelican","prior knowledge can influence our processing of information that's in front of us","no","<p>Correct!</p>","null","","","","","","",""
"","null","html-keyboard-response","405","2.0.0","485569","p7pth7yjlry","bigger","pelican","prior knowledge can influence our processing of information that's in front of us","no","<div style=""font-size:60px;"">+</div>","null","","","","","","",""
"","616","image-keyboard-response","406","2.0.0","486187","p7pth7yjlry","bigger","pelican","prior knowledge can influence our processing of information that's in front of us","no","stimuli/4-Inongruent.jpg","m","","","","","right","m","true"
"","null","html-keyboard-response","407","2.0.0","487089","p7pth7yjlry","bigger","pelican","prior knowledge can influence our processing of information that's in front of us","no","<p>Correct!</p>","null","","","","","","",""
"","null","html-keyboard-response","408","2.0.0","488090","p7pth7yjlry","bigger","pelican","prior knowledge can influence our processing of information that's in front of us","no","<div style=""font-size:60px;"">+</div>","null","","","","","","",""
"","679","image-keyboard-response","409","2.0.0","488772","p7pth7yjlry","bigger","pelican","prior knowledge can influence our processing of information that's in front of us","no","stimuli/1-Inongruent.jpg","m","","","","","right","m","true"
"","null","html-keyboard-response","410","2.0.0","489674","p7pth7yjlry","bigger","pelican","prior knowledge can influence our processing of information that's in front of us","no","<p>Correct!</p>","null","","","","","","",""
"","null","html-keyboard-response","411","2.0.0","490676","p7pth7yjlry","bigger","pelican","prior knowledge can influence our processing of information that's in front of us","no","<div style=""font-size:60px;"">+</div>","null","","","","","","",""
"","891","image-keyboard-response","412","2.0.0","491572","p7pth7yjlry","bigger","pelican","prior knowledge can influence our processing of information that's in front of us","no","stimuli/28-Inongruent.jpg","m","","","","","right","m","true"
"","null","html-keyboard-response","413","2.0.0","492474","p7pth7yjlry","bigger","pelican","prior knowledge can influence our processing of information that's in front of us","no","<p>Correct!</p>","null","","","","","","",""
"","null","html-keyboard-response","414","2.0.0","493477","p7pth7yjlry","bigger","pelican","prior knowledge can influence our processing of information that's in front of us","no","<div style=""font-size:60px;"">+</div>","null","","","","","","",""
