"success","rt","trial_type","trial_index","plugin_version","time_elapsed","random_id","condition","participant","participant_thoughts","participant_difficulties","stimulus","response","timeout","failed_images","failed_audio","failed_video","correct_response","correct_response_key","correct"
"true","1692","fullscreen","0","null","2715","p9gaua7n50t","bigger","A1","if image sizes made a difference to reaction time (bigger images meant you react faster?)","no","","","","","","","","",""
"","467","html-keyboard-response","1","2.0.0","3182","p9gaua7n50t","bigger","A1","if image sizes made a difference to reaction time (bigger images meant you react faster?)","no","Welcome to the Size Stroop experiment. Press any key to begin.","AudioVolumeDown","","","","","","",""
"","null","html-keyboard-response","2","2.0.0","4185","p9gaua7n50t","bigger","A1","if image sizes made a difference to reaction time (bigger images meant you react faster?)","no","This trial will be in fullscreen mode.","null","","","","","","",""
"","1494","survey-text","3","2.0.0","5720","p9gaua7n50t","bigger","A1","if image sizes made a difference to reaction time (bigger images meant you react faster?)","no","","{""participant_id"":""A1""}","","","","","","",""
"","6797","html-keyboard-response","4","2.0.0","12518","p9gaua7n50t","bigger","A1","if image sizes made a difference to reaction time (bigger images meant you react faster?)","no","<p>In this experiment, two images will appear on the screen. Identify the <strong>larger</strong> images.</p>
              <p>If the image on the left is larger, press ""z"". If the image on the right is larger, press ""m"".</p>
              <p>Press any key to begin.</p>","Enter","","","","","","",""
"true","","preload","5","2.0.0","12927","p9gaua7n50t","bigger","A1","if image sizes made a difference to reaction time (bigger images meant you react faster?)","no","","","false","[]","[]","[]","","",""
"","null","html-keyboard-response","6","2.0.0","13939","p9gaua7n50t","bigger","A1","if image sizes made a difference to reaction time (bigger images meant you react faster?)","no","<div style=""font-size:60px;"">+</div>","null","","","","","","",""
"","1813","image-keyboard-response","7","2.0.0","15758","p9gaua7n50t","bigger","A1","if image sizes made a difference to reaction time (bigger images meant you react faster?)","no","stimuli/13-Inongruent.jpg","m","","","","","right","m","true"
"","null","html-keyboard-response","8","2.0.0","16665","p9gaua7n50t","bigger","A1","if image sizes made a difference to reaction time (bigger images meant you react faster?)","no","<p>Correct!</p>","null","","","","","","",""
"","null","html-keyboard-response","9","2.0.0","17675","p9gaua7n50t","bigger","A1","if image sizes made a difference to reaction time (bigger images meant you react faster?)","no","<div style=""font-size:60px;"">+</div>","null","","","","","","",""
"","1043","image-keyboard-response","10","2.0.0","18723","p9gaua7n50t","bigger","A1","if image sizes made a difference to reaction time (bigger images meant you react faster?)","no","stimuli/28-Inongruent.jpg","m","","","","","right","m","true"
"","null","html-keyboard-response","11","2.0.0","19688","p9gaua7n50t","bigger","A1","if image sizes made a difference to reaction time (bigger images meant you react faster?)","no","<p>Correct!</p>","null","","","","","","",""
"","null","html-keyboard-response","12","2.0.0","20690","p9gaua7n50t","bigger","A1","if image sizes made a difference to reaction time (bigger images meant you react faster?)","no","<div style=""font-size:60px;"">+</div>","null","","","","","","",""
"","480","image-keyboard-response","13","2.0.0","21177","p9gaua7n50t","bigger","A1","if image sizes made a difference to reaction time (bigger images meant you react faster?)","no","stimuli/29-Inongruent.jpg","m","","","","","right","m","true"
"","null","html-keyboard-response","14","2.0.0","22091","p9gaua7n50t","bigger","A1","if image sizes made a difference to reaction time (bigger images meant you react faster?)","no","<p>Correct!</p>","null","","","","","","",""
"","null","html-keyboard-response","15","2.0.0","23093","p9gaua7n50t","bigger","A1","if image sizes made a difference to reaction time (bigger images meant you react faster?)","no","<div style=""font-size:60px;"">+</div>","null","","","","","","",""
"","875","image-keyboard-response","16","2.0.0","23973","p9gaua7n50t","bigger","A1","if image sizes made a difference to reaction time (bigger images meant you react faster?)","no","stimuli/8-Inongruent.jpg","m","","","","","right","m","true"
"","null","html-keyboard-response","17","2.0.0","24881","p9gaua7n50t","bigger","A1","if image sizes made a difference to reaction time (bigger images meant you react faster?)","no","<p>Correct!</p>","null","","","","","","",""
"","null","html-keyboard-response","18","2.0.0","25888","p9gaua7n50t","bigger","A1","if image sizes made a difference to reaction time (bigger images meant you react faster?)","no","<div style=""font-size:60px;"">+</div>","null","","","","","","",""
"","572","image-keyboard-response","19","2.0.0","26466","p9gaua7n50t","bigger","A1","if image sizes made a difference to reaction time (bigger images meant you react faster?)","no","stimuli/5-Inongruent.jpg","m","","","","","right","m","true"
"","null","html-keyboard-response","20","2.0.0","27369","p9gaua7n50t","bigger","A1","if image sizes made a difference to reaction time (bigger images meant you react faster?)","no","<p>Correct!</p>","null","","","","","","",""
"","null","html-keyboard-response","21","2.0.0","28382","p9gaua7n50t","bigger","A1","if image sizes made a difference to reaction time (bigger images meant you react faster?)","no","<div style=""font-size:60px;"">+</div>","null","","","","","","",""
"","773","image-keyboard-response","22","2.0.0","29162","p9gaua7n50t","bigger","A1","if image sizes made a difference to reaction time (bigger images meant you react faster?)","no","stimuli/19-Inongruent.jpg","m","","","","","right","m","true"
"","null","html-keyboard-response","23","2.0.0","30064","p9gaua7n50t","bigger","A1","if image sizes made a difference to reaction time (bigger images meant you react faster?)","no","<p>Correct!</p>","null","","","","","","",""
"","null","html-keyboard-response","24","2.0.0","31190","p9gaua7n50t","bigger","A1","if image sizes made a difference to reaction time (bigger images meant you react faster?)","no","<div style=""font-size:60px;"">+</div>","null","","","","","","",""
"","588","image-keyboard-response","25","2.0.0","31785","p9gaua7n50t","bigger","A1","if image sizes made a difference to reaction time (bigger images meant you react faster?)","no","stimuli/25-Congruent.jpg","z","","","","","left","z","true"
"","null","html-keyboard-response","26","2.0.0","32690","p9gaua7n50t","bigger","A1","if image sizes made a difference to reaction time (bigger images meant you react faster?)","no","<p>Correct!</p>","null","","","","","","",""
"","null","html-keyboard-response","27","2.0.0","33705","p9gaua7n50t","bigger","A1","if image sizes made a difference to reaction time (bigger images meant you react faster?)","no","<div style=""font-size:60px;"">+</div>","null","","","","","","",""
"","912","image-keyboard-response","28","2.0.0","34622","p9gaua7n50t","bigger","A1","if image sizes made a difference to reaction time (bigger images meant you react faster?)","no","stimuli/33-Inongruent.jpg","m","","","","","right","m","true"
"","null","html-keyboard-response","29","2.0.0","35526","p9gaua7n50t","bigger","A1","if image sizes made a difference to reaction time (bigger images meant you react faster?)","no","<p>Correct!</p>","null","","","","","","",""
"","null","html-keyboard-response","30","2.0.0","36537","p9gaua7n50t","bigger","A1","if image sizes made a difference to reaction time (bigger images meant you react faster?)","no","<div style=""font-size:60px;"">+</div>","null","","","","","","",""
"","720","image-keyboard-response","31","2.0.0","37263","p9gaua7n50t","bigger","A1","if image sizes made a difference to reaction time (bigger images meant you react faster?)","no","stimuli/12-Inongruent.jpg","m","","","","","right","m","true"
"","null","html-keyboard-response","32","2.0.0","38250","p9gaua7n50t","bigger","A1","if image sizes made a difference to reaction time (bigger images meant you react faster?)","no","<p>Correct!</p>","null","","","","","","",""
"","null","html-keyboard-response","33","2.0.0","39257","p9gaua7n50t","bigger","A1","if image sizes made a difference to reaction time (bigger images meant you react faster?)","no","<div style=""font-size:60px;"">+</div>","null","","","","","","",""
"","936","image-keyboard-response","34","2.0.0","40199","p9gaua7n50t","bigger","A1","if image sizes made a difference to reaction time (bigger images meant you react faster?)","no","stimuli/24-Inongruent.jpg","m","","","","","right","m","true"
"","null","html-keyboard-response","35","2.0.0","41105","p9gaua7n50t","bigger","A1","if image sizes made a difference to reaction time (bigger images meant you react faster?)","no","<p>Correct!</p>","null","","","","","","",""
"","null","html-keyboard-response","36","2.0.0","42106","p9gaua7n50t","bigger","A1","if image sizes made a difference to reaction time (bigger images meant you react faster?)","no","<div style=""font-size:60px;"">+</div>","null","","","","","","",""
"","2222","image-keyboard-response","37","2.0.0","44333","p9gaua7n50t","bigger","A1","if image sizes made a difference to reaction time (bigger images meant you react faster?)","no","stimuli/1-Congruent.jpg","z","","","","","left","z","true"
"","null","html-keyboard-response","38","2.0.0","45243","p9gaua7n50t","bigger","A1","if image sizes made a difference to reaction time (bigger images meant you react faster?)","no","<p>Correct!</p>","null","","","","","","",""
"","null","html-keyboard-response","39","2.0.0","46345","p9gaua7n50t","bigger","A1","if image sizes made a difference to reaction time (bigger images meant you react faster?)","no","<div style=""font-size:60px;"">+</div>","null","","","","","","",""
"","623","image-keyboard-response","40","2.0.0","46971","p9gaua7n50t","bigger","A1","if image sizes made a difference to reaction time (bigger images meant you react faster?)","no","stimuli/10-Congruent.jpg","z","","","","","left","z","true"
"","null","html-keyboard-response","41","2.0.0","47880","p9gaua7n50t","bigger","A1","if image sizes made a difference to reaction time (bigger images meant you react faster?)","no","<p>Correct!</p>","null","","","","","","",""
"","null","html-keyboard-response","42","2.0.0","48896","p9gaua7n50t","bigger","A1","if image sizes made a difference to reaction time (bigger images meant you react faster?)","no","<div style=""font-size:60px;"">+</div>","null","","","","","","",""
"","625","image-keyboard-response","43","2.0.0","49524","p9gaua7n50t","bigger","A1","if image sizes made a difference to reaction time (bigger images meant you react faster?)","no","stimuli/24-Congruent.jpg","z","","","","","left","z","true"
"","null","html-keyboard-response","44","2.0.0","50433","p9gaua7n50t","bigger","A1","if image sizes made a difference to reaction time (bigger images meant you react faster?)","no","<p>Correct!</p>","null","","","","","","",""
"","null","html-keyboard-response","45","2.0.0","51442","p9gaua7n50t","bigger","A1","if image sizes made a difference to reaction time (bigger images meant you react faster?)","no","<div style=""font-size:60px;"">+</div>","null","","","","","","",""
"","518","image-keyboard-response","46","2.0.0","51963","p9gaua7n50t","bigger","A1","if image sizes made a difference to reaction time (bigger images meant you react faster?)","no","stimuli/1-Inongruent.jpg","m","","","","","right","m","true"
"","null","html-keyboard-response","47","2.0.0","52865","p9gaua7n50t","bigger","A1","if image sizes made a difference to reaction time (bigger images meant you react faster?)","no","<p>Correct!</p>","null","","","","","","",""
"","null","html-keyboard-response","48","2.0.0","53869","p9gaua7n50t","bigger","A1","if image sizes made a difference to reaction time (bigger images meant you react faster?)","no","<div style=""font-size:60px;"">+</div>","null","","","","","","",""
"","556","image-keyboard-response","49","2.0.0","54429","p9gaua7n50t","bigger","A1","if image sizes made a difference to reaction time (bigger images meant you react faster?)","no","stimuli/10-Inongruent.jpg","m","","","","","right","m","true"
"","null","html-keyboard-response","50","2.0.0","55333","p9gaua7n50t","bigger","A1","if image sizes made a difference to reaction time (bigger images meant you react faster?)","no","<p>Correct!</p>","null","","","","","","",""
"","null","html-keyboard-response","51","2.0.0","56443","p9gaua7n50t","bigger","A1","if image sizes made a difference to reaction time (bigger images meant you react faster?)","no","<div style=""font-size:60px;"">+</div>","null","","","","","","",""
"","501","image-keyboard-response","52","2.0.0","56947","p9gaua7n50t","bigger","A1","if image sizes made a difference to reaction time (bigger images meant you react faster?)","no","stimuli/18-Inongruent.jpg","m","","","","","right","m","true"
"","null","html-keyboard-response","53","2.0.0","57850","p9gaua7n50t","bigger","A1","if image sizes made a difference to reaction time (bigger images meant you react faster?)","no","<p>Correct!</p>","null","","","","","","",""
"","null","html-keyboard-response","54","2.0.0","58853","p9gaua7n50t","bigger","A1","if image sizes made a difference to reaction time (bigger images meant you react faster?)","no","<div style=""font-size:60px;"">+</div>","null","","","","","","",""
"","652","image-keyboard-response","55","2.0.0","59509","p9gaua7n50t","bigger","A1","if image sizes made a difference to reaction time (bigger images meant you react faster?)","no","stimuli/29-Congruent.jpg","z","","","","","left","z","true"
"","null","html-keyboard-response","56","2.0.0","60410","p9gaua7n50t","bigger","A1","if image sizes made a difference to reaction time (bigger images meant you react faster?)","no","<p>Correct!</p>","null","","","","","","",""
"","null","html-keyboard-response","57","2.0.0","61546","p9gaua7n50t","bigger","A1","if image sizes made a difference to reaction time (bigger images meant you react faster?)","no","<div style=""font-size:60px;"">+</div>","null","","","","","","",""
"","468","image-keyboard-response","58","2.0.0","62017","p9gaua7n50t","bigger","A1","if image sizes made a difference to reaction time (bigger images meant you react faster?)","no","stimuli/36-Inongruent.jpg","m","","","","","right","m","true"
"","null","html-keyboard-response","59","2.0.0","62920","p9gaua7n50t","bigger","A1","if image sizes made a difference to reaction time (bigger images meant you react faster?)","no","<p>Correct!</p>","null","","","","","","",""
"","null","html-keyboard-response","60","2.0.0","63930","p9gaua7n50t","bigger","A1","if image sizes made a difference to reaction time (bigger images meant you react faster?)","no","<div style=""font-size:60px;"">+</div>","null","","","","","","",""
"","502","image-keyboard-response","61","2.0.0","64442","p9gaua7n50t","bigger","A1","if image sizes made a difference to reaction time (bigger images meant you react faster?)","no","stimuli/23-Inongruent.jpg","m","","","","","right","m","true"
"","null","html-keyboard-response","62","2.0.0","65345","p9gaua7n50t","bigger","A1","if image sizes made a difference to reaction time (bigger images meant you react faster?)","no","<p>Correct!</p>","null","","","","","","",""
"","null","html-keyboard-response","63","2.0.0","66353","p9gaua7n50t","bigger","A1","if image sizes made a difference to reaction time (bigger images meant you react faster?)","no","<div style=""font-size:60px;"">+</div>","null","","","","","","",""
"","1461","image-keyboard-response","64","2.0.0","67817","p9gaua7n50t","bigger","A1","if image sizes made a difference to reaction time (bigger images meant you react faster?)","no","stimuli/26-Congruent.jpg","m","","","","","left","z","false"
"","null","html-keyboard-response","65","2.0.0","72828","p9gaua7n50t","bigger","A1","if image sizes made a difference to reaction time (bigger images meant you react faster?)","no","<p>Incorrect.</p><p>Remember to select the <b>bigger</b> image.</p><p>Continuing in 5 seconds...</p>","null","","","","","","",""
"","null","html-keyboard-response","66","2.0.0","73946","p9gaua7n50t","bigger","A1","if image sizes made a difference to reaction time (bigger images meant you react faster?)","no","<div style=""font-size:60px;"">+</div>","null","","","","","","",""
"","629","image-keyboard-response","67","2.0.0","74581","p9gaua7n50t","bigger","A1","if image sizes made a difference to reaction time (bigger images meant you react faster?)","no","stimuli/30-Congruent.jpg","z","","","","","left","z","true"
"","null","html-keyboard-response","68","2.0.0","75481","p9gaua7n50t","bigger","A1","if image sizes made a difference to reaction time (bigger images meant you react faster?)","no","<p>Correct!</p>","null","","","","","","",""
"","null","html-keyboard-response","69","2.0.0","76583","p9gaua7n50t","bigger","A1","if image sizes made a difference to reaction time (bigger images meant you react faster?)","no","<div style=""font-size:60px;"">+</div>","null","","","","","","",""
"","1146","image-keyboard-response","70","2.0.0","77734","p9gaua7n50t","bigger","A1","if image sizes made a difference to reaction time (bigger images meant you react faster?)","no","stimuli/6-Congruent.jpg","z","","","","","left","z","true"
"","null","html-keyboard-response","71","2.0.0","78649","p9gaua7n50t","bigger","A1","if image sizes made a difference to reaction time (bigger images meant you react faster?)","no","<p>Correct!</p>","null","","","","","","",""
"","null","html-keyboard-response","72","2.0.0","79651","p9gaua7n50t","bigger","A1","if image sizes made a difference to reaction time (bigger images meant you react faster?)","no","<div style=""font-size:60px;"">+</div>","null","","","","","","",""
"","585","image-keyboard-response","73","2.0.0","80240","p9gaua7n50t","bigger","A1","if image sizes made a difference to reaction time (bigger images meant you react faster?)","no","stimuli/34-Congruent.jpg","z","","","","","left","z","true"
"","null","html-keyboard-response","74","2.0.0","81140","p9gaua7n50t","bigger","A1","if image sizes made a difference to reaction time (bigger images meant you react faster?)","no","<p>Correct!</p>","null","","","","","","",""
"","null","html-keyboard-response","75","2.0.0","82153","p9gaua7n50t","bigger","A1","if image sizes made a difference to reaction time (bigger images meant you react faster?)","no","<div style=""font-size:60px;"">+</div>","null","","","","","","",""
"","753","image-keyboard-response","76","2.0.0","82909","p9gaua7n50t","bigger","A1","if image sizes made a difference to reaction time (bigger images meant you react faster?)","no","stimuli/3-Congruent.jpg","z","","","","","left","z","true"
"","null","html-keyboard-response","77","2.0.0","83817","p9gaua7n50t","bigger","A1","if image sizes made a difference to reaction time (bigger images meant you react faster?)","no","<p>Correct!</p>","null","","","","","","",""
"","null","html-keyboard-response","78","2.0.0","84819","p9gaua7n50t","bigger","A1","if image sizes made a difference to reaction time (bigger images meant you react faster?)","no","<div style=""font-size:60px;"">+</div>","null","","","","","","",""
"","731","image-keyboard-response","79","2.0.0","85550","p9gaua7n50t","bigger","A1","if image sizes made a difference to reaction time (bigger images meant you react faster?)","no","stimuli/1-Congruent.jpg","z","","","","","left","z","true"
"","null","html-keyboard-response","80","2.0.0","86464","p9gaua7n50t","bigger","A1","if image sizes made a difference to reaction time (bigger images meant you react faster?)","no","<p>Correct!</p>","null","","","","","","",""
"","null","html-keyboard-response","81","2.0.0","87471","p9gaua7n50t","bigger","A1","if image sizes made a difference to reaction time (bigger images meant you react faster?)","no","<div style=""font-size:60px;"">+</div>","null","","","","","","",""
"","629","image-keyboard-response","82","2.0.0","88104","p9gaua7n50t","bigger","A1","if image sizes made a difference to reaction time (bigger images meant you react faster?)","no","stimuli/7-Inongruent.jpg","m","","","","","right","m","true"
"","null","html-keyboard-response","83","2.0.0","89013","p9gaua7n50t","bigger","A1","if image sizes made a difference to reaction time (bigger images meant you react faster?)","no","<p>Correct!</p>","null","","","","","","",""
"","null","html-keyboard-response","84","2.0.0","90013","p9gaua7n50t","bigger","A1","if image sizes made a difference to reaction time (bigger images meant you react faster?)","no","<div style=""font-size:60px;"">+</div>","null","","","","","","",""
"","450","image-keyboard-response","85","2.0.0","90467","p9gaua7n50t","bigger","A1","if image sizes made a difference to reaction time (bigger images meant you react faster?)","no","stimuli/27-Inongruent.jpg","m","","","","","right","m","true"
"","null","html-keyboard-response","86","2.0.0","91370","p9gaua7n50t","bigger","A1","if image sizes made a difference to reaction time (bigger images meant you react faster?)","no","<p>Correct!</p>","null","","","","","","",""
"","null","html-keyboard-response","87","2.0.0","92375","p9gaua7n50t","bigger","A1","if image sizes made a difference to reaction time (bigger images meant you react faster?)","no","<div style=""font-size:60px;"">+</div>","null","","","","","","",""
"","556","image-keyboard-response","88","2.0.0","92932","p9gaua7n50t","bigger","A1","if image sizes made a difference to reaction time (bigger images meant you react faster?)","no","stimuli/26-Congruent.jpg","z","","","","","left","z","true"
"","null","html-keyboard-response","89","2.0.0","93843","p9gaua7n50t","bigger","A1","if image sizes made a difference to reaction time (bigger images meant you react faster?)","no","<p>Correct!</p>","null","","","","","","",""
"","null","html-keyboard-response","90","2.0.0","94847","p9gaua7n50t","bigger","A1","if image sizes made a difference to reaction time (bigger images meant you react faster?)","no","<div style=""font-size:60px;"">+</div>","null","","","","","","",""
"","535","image-keyboard-response","91","2.0.0","95387","p9gaua7n50t","bigger","A1","if image sizes made a difference to reaction time (bigger images meant you react faster?)","no","stimuli/16-Congruent.jpg","z","","","","","left","z","true"
"","null","html-keyboard-response","92","2.0.0","96395","p9gaua7n50t","bigger","A1","if image sizes made a difference to reaction time (bigger images meant you react faster?)","no","<p>Correct!</p>","null","","","","","","",""
"","null","html-keyboard-response","93","2.0.0","97397","p9gaua7n50t","bigger","A1","if image sizes made a difference to reaction time (bigger images meant you react faster?)","no","<div style=""font-size:60px;"">+</div>","null","","","","","","",""
"","537","image-keyboard-response","94","2.0.0","97939","p9gaua7n50t","bigger","A1","if image sizes made a difference to reaction time (bigger images meant you react faster?)","no","stimuli/3-Inongruent.jpg","m","","","","","right","m","true"
"","null","html-keyboard-response","95","2.0.0","98848","p9gaua7n50t","bigger","A1","if image sizes made a difference to reaction time (bigger images meant you react faster?)","no","<p>Correct!</p>","null","","","","","","",""
"","null","html-keyboard-response","96","2.0.0","99853","p9gaua7n50t","bigger","A1","if image sizes made a difference to reaction time (bigger images meant you react faster?)","no","<div style=""font-size:60px;"">+</div>","null","","","","","","",""
"","594","image-keyboard-response","97","2.0.0","100452","p9gaua7n50t","bigger","A1","if image sizes made a difference to reaction time (bigger images meant you react faster?)","no","stimuli/23-Congruent.jpg","z","","","","","left","z","true"
"","null","html-keyboard-response","98","2.0.0","101353","p9gaua7n50t","bigger","A1","if image sizes made a difference to reaction time (bigger images meant you react faster?)","no","<p>Correct!</p>","null","","","","","","",""
"","null","html-keyboard-response","99","2.0.0","102359","p9gaua7n50t","bigger","A1","if image sizes made a difference to reaction time (bigger images meant you react faster?)","no","<div style=""font-size:60px;"">+</div>","null","","","","","","",""
"","619","image-keyboard-response","100","2.0.0","102982","p9gaua7n50t","bigger","A1","if image sizes made a difference to reaction time (bigger images meant you react faster?)","no","stimuli/27-Congruent.jpg","z","","","","","left","z","true"
"","null","html-keyboard-response","101","2.0.0","103889","p9gaua7n50t","bigger","A1","if image sizes made a difference to reaction time (bigger images meant you react faster?)","no","<p>Correct!</p>","null","","","","","","",""
"","null","html-keyboard-response","102","2.0.0","104895","p9gaua7n50t","bigger","A1","if image sizes made a difference to reaction time (bigger images meant you react faster?)","no","<div style=""font-size:60px;"">+</div>","null","","","","","","",""
"","1252","image-keyboard-response","103","2.0.0","106148","p9gaua7n50t","bigger","A1","if image sizes made a difference to reaction time (bigger images meant you react faster?)","no","stimuli/1-Inongruent.jpg","m","","","","","right","m","true"
"","null","html-keyboard-response","104","2.0.0","107062","p9gaua7n50t","bigger","A1","if image sizes made a difference to reaction time (bigger images meant you react faster?)","no","<p>Correct!</p>","null","","","","","","",""
"","null","html-keyboard-response","105","2.0.0","108158","p9gaua7n50t","bigger","A1","if image sizes made a difference to reaction time (bigger images meant you react faster?)","no","<div style=""font-size:60px;"">+</div>","null","","","","","","",""
"","551","image-keyboard-response","106","2.0.0","108714","p9gaua7n50t","bigger","A1","if image sizes made a difference to reaction time (bigger images meant you react faster?)","no","stimuli/9-Inongruent.jpg","m","","","","","right","m","true"
"","null","html-keyboard-response","107","2.0.0","109624","p9gaua7n50t","bigger","A1","if image sizes made a difference to reaction time (bigger images meant you react faster?)","no","<p>Correct!</p>","null","","","","","","",""
"","null","html-keyboard-response","108","2.0.0","110628","p9gaua7n50t","bigger","A1","if image sizes made a difference to reaction time (bigger images meant you react faster?)","no","<div style=""font-size:60px;"">+</div>","null","","","","","","",""
"","579","image-keyboard-response","109","2.0.0","111207","p9gaua7n50t","bigger","A1","if image sizes made a difference to reaction time (bigger images meant you react faster?)","no","stimuli/28-Inongruent.jpg","m","","","","","right","m","true"
"","null","html-keyboard-response","110","2.0.0","112111","p9gaua7n50t","bigger","A1","if image sizes made a difference to reaction time (bigger images meant you react faster?)","no","<p>Correct!</p>","null","","","","","","",""
"","null","html-keyboard-response","111","2.0.0","113115","p9gaua7n50t","bigger","A1","if image sizes made a difference to reaction time (bigger images meant you react faster?)","no","<div style=""font-size:60px;"">+</div>","null","","","","","","",""
"","892","image-keyboard-response","112","2.0.0","114008","p9gaua7n50t","bigger","A1","if image sizes made a difference to reaction time (bigger images meant you react faster?)","no","stimuli/25-Congruent.jpg","z","","","","","left","z","true"
"","null","html-keyboard-response","113","2.0.0","114923","p9gaua7n50t","bigger","A1","if image sizes made a difference to reaction time (bigger images meant you react faster?)","no","<p>Correct!</p>","null","","","","","","",""
"","null","html-keyboard-response","114","2.0.0","115931","p9gaua7n50t","bigger","A1","if image sizes made a difference to reaction time (bigger images meant you react faster?)","no","<div style=""font-size:60px;"">+</div>","null","","","","","","",""
"","427","image-keyboard-response","115","2.0.0","116360","p9gaua7n50t","bigger","A1","if image sizes made a difference to reaction time (bigger images meant you react faster?)","no","stimuli/23-Inongruent.jpg","m","","","","","right","m","true"
"","null","html-keyboard-response","116","2.0.0","117270","p9gaua7n50t","bigger","A1","if image sizes made a difference to reaction time (bigger images meant you react faster?)","no","<p>Correct!</p>","null","","","","","","",""
"","null","html-keyboard-response","117","2.0.0","118276","p9gaua7n50t","bigger","A1","if image sizes made a difference to reaction time (bigger images meant you react faster?)","no","<div style=""font-size:60px;"">+</div>","null","","","","","","",""
"","621","image-keyboard-response","118","2.0.0","118899","p9gaua7n50t","bigger","A1","if image sizes made a difference to reaction time (bigger images meant you react faster?)","no","stimuli/10-Congruent.jpg","z","","","","","left","z","true"
"","null","html-keyboard-response","119","2.0.0","119810","p9gaua7n50t","bigger","A1","if image sizes made a difference to reaction time (bigger images meant you react faster?)","no","<p>Correct!</p>","null","","","","","","",""
"","null","html-keyboard-response","120","2.0.0","120813","p9gaua7n50t","bigger","A1","if image sizes made a difference to reaction time (bigger images meant you react faster?)","no","<div style=""font-size:60px;"">+</div>","null","","","","","","",""
"","511","image-keyboard-response","121","2.0.0","121326","p9gaua7n50t","bigger","A1","if image sizes made a difference to reaction time (bigger images meant you react faster?)","no","stimuli/29-Congruent.jpg","z","","","","","left","z","true"
"","null","html-keyboard-response","122","2.0.0","122240","p9gaua7n50t","bigger","A1","if image sizes made a difference to reaction time (bigger images meant you react faster?)","no","<p>Correct!</p>","null","","","","","","",""
"","null","html-keyboard-response","123","2.0.0","123250","p9gaua7n50t","bigger","A1","if image sizes made a difference to reaction time (bigger images meant you react faster?)","no","<div style=""font-size:60px;"">+</div>","null","","","","","","",""
"","489","image-keyboard-response","124","2.0.0","123742","p9gaua7n50t","bigger","A1","if image sizes made a difference to reaction time (bigger images meant you react faster?)","no","stimuli/9-Congruent.jpg","z","","","","","left","z","true"
"","null","html-keyboard-response","125","2.0.0","124646","p9gaua7n50t","bigger","A1","if image sizes made a difference to reaction time (bigger images meant you react faster?)","no","<p>Correct!</p>","null","","","","","","",""
"","null","html-keyboard-response","126","2.0.0","125653","p9gaua7n50t","bigger","A1","if image sizes made a difference to reaction time (bigger images meant you react faster?)","no","<div style=""font-size:60px;"">+</div>","null","","","","","","",""
"","831","image-keyboard-response","127","2.0.0","126488","p9gaua7n50t","bigger","A1","if image sizes made a difference to reaction time (bigger images meant you react faster?)","no","stimuli/21-Inongruent.jpg","m","","","","","right","m","true"
"","null","html-keyboard-response","128","2.0.0","127398","p9gaua7n50t","bigger","A1","if image sizes made a difference to reaction time (bigger images meant you react faster?)","no","<p>Correct!</p>","null","","","","","","",""
"","null","html-keyboard-response","129","2.0.0","128405","p9gaua7n50t","bigger","A1","if image sizes made a difference to reaction time (bigger images meant you react faster?)","no","<div style=""font-size:60px;"">+</div>","null","","","","","","",""
"","623","image-keyboard-response","130","2.0.0","129033","p9gaua7n50t","bigger","A1","if image sizes made a difference to reaction time (bigger images meant you react faster?)","no","stimuli/33-Congruent.jpg","z","","","","","left","z","true"
"","null","html-keyboard-response","131","2.0.0","129947","p9gaua7n50t","bigger","A1","if image sizes made a difference to reaction time (bigger images meant you react faster?)","no","<p>Correct!</p>","null","","","","","","",""
"","null","html-keyboard-response","132","2.0.0","130951","p9gaua7n50t","bigger","A1","if image sizes made a difference to reaction time (bigger images meant you react faster?)","no","<div style=""font-size:60px;"">+</div>","null","","","","","","",""
"","706","image-keyboard-response","133","2.0.0","131657","p9gaua7n50t","bigger","A1","if image sizes made a difference to reaction time (bigger images meant you react faster?)","no","stimuli/8-Inongruent.jpg","z","","","","","right","m","false"
"","null","html-keyboard-response","134","2.0.0","136672","p9gaua7n50t","bigger","A1","if image sizes made a difference to reaction time (bigger images meant you react faster?)","no","<p>Incorrect.</p><p>Remember to select the <b>bigger</b> image.</p><p>Continuing in 5 seconds...</p>","null","","","","","","",""
"","null","html-keyboard-response","135","2.0.0","137683","p9gaua7n50t","bigger","A1","if image sizes made a difference to reaction time (bigger images meant you react faster?)","no","<div style=""font-size:60px;"">+</div>","null","","","","","","",""
"","553","image-keyboard-response","136","2.0.0","138242","p9gaua7n50t","bigger","A1","if image sizes made a difference to reaction time (bigger images meant you react faster?)","no","stimuli/33-Inongruent.jpg","m","","","","","right","m","true"
"","null","html-keyboard-response","137","2.0.0","139152","p9gaua7n50t","bigger","A1","if image sizes made a difference to reaction time (bigger images meant you react faster?)","no","<p>Correct!</p>","null","","","","","","",""
"","null","html-keyboard-response","138","2.0.0","140160","p9gaua7n50t","bigger","A1","if image sizes made a difference to reaction time (bigger images meant you react faster?)","no","<div style=""font-size:60px;"">+</div>","null","","","","","","",""
"","443","image-keyboard-response","139","2.0.0","140608","p9gaua7n50t","bigger","A1","if image sizes made a difference to reaction time (bigger images meant you react faster?)","no","stimuli/8-Congruent.jpg","z","","","","","left","z","true"
"","null","html-keyboard-response","140","2.0.0","141521","p9gaua7n50t","bigger","A1","if image sizes made a difference to reaction time (bigger images meant you react faster?)","no","<p>Correct!</p>","null","","","","","","",""
"","null","html-keyboard-response","141","2.0.0","142530","p9gaua7n50t","bigger","A1","if image sizes made a difference to reaction time (bigger images meant you react faster?)","no","<div style=""font-size:60px;"">+</div>","null","","","","","","",""
"","462","image-keyboard-response","142","2.0.0","142998","p9gaua7n50t","bigger","A1","if image sizes made a difference to reaction time (bigger images meant you react faster?)","no","stimuli/21-Congruent.jpg","z","","","","","left","z","true"
"","null","html-keyboard-response","143","2.0.0","143902","p9gaua7n50t","bigger","A1","if image sizes made a difference to reaction time (bigger images meant you react faster?)","no","<p>Correct!</p>","null","","","","","","",""
"","null","html-keyboard-response","144","2.0.0","144903","p9gaua7n50t","bigger","A1","if image sizes made a difference to reaction time (bigger images meant you react faster?)","no","<div style=""font-size:60px;"">+</div>","null","","","","","","",""
"","424","image-keyboard-response","145","2.0.0","145334","p9gaua7n50t","bigger","A1","if image sizes made a difference to reaction time (bigger images meant you react faster?)","no","stimuli/22-Inongruent.jpg","m","","","","","right","m","true"
"","null","html-keyboard-response","146","2.0.0","146249","p9gaua7n50t","bigger","A1","if image sizes made a difference to reaction time (bigger images meant you react faster?)","no","<p>Correct!</p>","null","","","","","","",""
"","null","html-keyboard-response","147","2.0.0","147254","p9gaua7n50t","bigger","A1","if image sizes made a difference to reaction time (bigger images meant you react faster?)","no","<div style=""font-size:60px;"">+</div>","null","","","","","","",""
"","525","image-keyboard-response","148","2.0.0","147787","p9gaua7n50t","bigger","A1","if image sizes made a difference to reaction time (bigger images meant you react faster?)","no","stimuli/20-Congruent.jpg","z","","","","","left","z","true"
"","null","html-keyboard-response","149","2.0.0","148754","p9gaua7n50t","bigger","A1","if image sizes made a difference to reaction time (bigger images meant you react faster?)","no","<p>Correct!</p>","null","","","","","","",""
"","null","html-keyboard-response","150","2.0.0","149760","p9gaua7n50t","bigger","A1","if image sizes made a difference to reaction time (bigger images meant you react faster?)","no","<div style=""font-size:60px;"">+</div>","null","","","","","","",""
"","551","image-keyboard-response","151","2.0.0","150317","p9gaua7n50t","bigger","A1","if image sizes made a difference to reaction time (bigger images meant you react faster?)","no","stimuli/13-Congruent.jpg","z","","","","","left","z","true"
"","null","html-keyboard-response","152","2.0.0","151232","p9gaua7n50t","bigger","A1","if image sizes made a difference to reaction time (bigger images meant you react faster?)","no","<p>Correct!</p>","null","","","","","","",""
"","null","html-keyboard-response","153","2.0.0","152234","p9gaua7n50t","bigger","A1","if image sizes made a difference to reaction time (bigger images meant you react faster?)","no","<div style=""font-size:60px;"">+</div>","null","","","","","","",""
"","480","image-keyboard-response","154","2.0.0","152715","p9gaua7n50t","bigger","A1","if image sizes made a difference to reaction time (bigger images meant you react faster?)","no","stimuli/33-Congruent.jpg","z","","","","","left","z","true"
"","null","html-keyboard-response","155","2.0.0","153624","p9gaua7n50t","bigger","A1","if image sizes made a difference to reaction time (bigger images meant you react faster?)","no","<p>Correct!</p>","null","","","","","","",""
"","null","html-keyboard-response","156","2.0.0","154631","p9gaua7n50t","bigger","A1","if image sizes made a difference to reaction time (bigger images meant you react faster?)","no","<div style=""font-size:60px;"">+</div>","null","","","","","","",""
"","483","image-keyboard-response","157","2.0.0","155115","p9gaua7n50t","bigger","A1","if image sizes made a difference to reaction time (bigger images meant you react faster?)","no","stimuli/6-Congruent.jpg","z","","","","","left","z","true"
"","null","html-keyboard-response","158","2.0.0","156021","p9gaua7n50t","bigger","A1","if image sizes made a difference to reaction time (bigger images meant you react faster?)","no","<p>Correct!</p>","null","","","","","","",""
"","null","html-keyboard-response","159","2.0.0","157030","p9gaua7n50t","bigger","A1","if image sizes made a difference to reaction time (bigger images meant you react faster?)","no","<div style=""font-size:60px;"">+</div>","null","","","","","","",""
"","744","image-keyboard-response","160","2.0.0","157780","p9gaua7n50t","bigger","A1","if image sizes made a difference to reaction time (bigger images meant you react faster?)","no","stimuli/4-Congruent.jpg","z","","","","","left","z","true"
"","null","html-keyboard-response","161","2.0.0","158687","p9gaua7n50t","bigger","A1","if image sizes made a difference to reaction time (bigger images meant you react faster?)","no","<p>Correct!</p>","null","","","","","","",""
"","null","html-keyboard-response","162","2.0.0","159694","p9gaua7n50t","bigger","A1","if image sizes made a difference to reaction time (bigger images meant you react faster?)","no","<div style=""font-size:60px;"">+</div>","null","","","","","","",""
"","505","image-keyboard-response","163","2.0.0","160200","p9gaua7n50t","bigger","A1","if image sizes made a difference to reaction time (bigger images meant you react faster?)","no","stimuli/21-Congruent.jpg","z","","","","","left","z","true"
"","null","html-keyboard-response","164","2.0.0","161116","p9gaua7n50t","bigger","A1","if image sizes made a difference to reaction time (bigger images meant you react faster?)","no","<p>Correct!</p>","null","","","","","","",""
"","null","html-keyboard-response","165","2.0.0","162120","p9gaua7n50t","bigger","A1","if image sizes made a difference to reaction time (bigger images meant you react faster?)","no","<div style=""font-size:60px;"">+</div>","null","","","","","","",""
"","431","image-keyboard-response","166","2.0.0","162558","p9gaua7n50t","bigger","A1","if image sizes made a difference to reaction time (bigger images meant you react faster?)","no","stimuli/5-Inongruent.jpg","m","","","","","right","m","true"
"","null","html-keyboard-response","167","2.0.0","163467","p9gaua7n50t","bigger","A1","if image sizes made a difference to reaction time (bigger images meant you react faster?)","no","<p>Correct!</p>","null","","","","","","",""
"","null","html-keyboard-response","168","2.0.0","164473","p9gaua7n50t","bigger","A1","if image sizes made a difference to reaction time (bigger images meant you react faster?)","no","<div style=""font-size:60px;"">+</div>","null","","","","","","",""
"","374","image-keyboard-response","169","2.0.0","164848","p9gaua7n50t","bigger","A1","if image sizes made a difference to reaction time (bigger images meant you react faster?)","no","stimuli/9-Congruent.jpg","z","","","","","left","z","true"
"","null","html-keyboard-response","170","2.0.0","165863","p9gaua7n50t","bigger","A1","if image sizes made a difference to reaction time (bigger images meant you react faster?)","no","<p>Correct!</p>","null","","","","","","",""
"","null","html-keyboard-response","171","2.0.0","166871","p9gaua7n50t","bigger","A1","if image sizes made a difference to reaction time (bigger images meant you react faster?)","no","<div style=""font-size:60px;"">+</div>","null","","","","","","",""
"","691","image-keyboard-response","172","2.0.0","167568","p9gaua7n50t","bigger","A1","if image sizes made a difference to reaction time (bigger images meant you react faster?)","no","stimuli/7-Congruent.jpg","z","","","","","left","z","true"
"","null","html-keyboard-response","173","2.0.0","168520","p9gaua7n50t","bigger","A1","if image sizes made a difference to reaction time (bigger images meant you react faster?)","no","<p>Correct!</p>","null","","","","","","",""
"","null","html-keyboard-response","174","2.0.0","169525","p9gaua7n50t","bigger","A1","if image sizes made a difference to reaction time (bigger images meant you react faster?)","no","<div style=""font-size:60px;"">+</div>","null","","","","","","",""
"","532","image-keyboard-response","175","2.0.0","170061","p9gaua7n50t","bigger","A1","if image sizes made a difference to reaction time (bigger images meant you react faster?)","no","stimuli/20-Congruent.jpg","z","","","","","left","z","true"
"","null","html-keyboard-response","176","2.0.0","170971","p9gaua7n50t","bigger","A1","if image sizes made a difference to reaction time (bigger images meant you react faster?)","no","<p>Correct!</p>","null","","","","","","",""
"","null","html-keyboard-response","177","2.0.0","172069","p9gaua7n50t","bigger","A1","if image sizes made a difference to reaction time (bigger images meant you react faster?)","no","<div style=""font-size:60px;"">+</div>","null","","","","","","",""
"","477","image-keyboard-response","178","2.0.0","172546","p9gaua7n50t","bigger","A1","if image sizes made a difference to reaction time (bigger images meant you react faster?)","no","stimuli/3-Inongruent.jpg","m","","","","","right","m","true"
"","null","html-keyboard-response","179","2.0.0","173453","p9gaua7n50t","bigger","A1","if image sizes made a difference to reaction time (bigger images meant you react faster?)","no","<p>Correct!</p>","null","","","","","","",""
"","null","html-keyboard-response","180","2.0.0","174459","p9gaua7n50t","bigger","A1","if image sizes made a difference to reaction time (bigger images meant you react faster?)","no","<div style=""font-size:60px;"">+</div>","null","","","","","","",""
"","586","image-keyboard-response","181","2.0.0","175045","p9gaua7n50t","bigger","A1","if image sizes made a difference to reaction time (bigger images meant you react faster?)","no","stimuli/22-Inongruent.jpg","m","","","","","right","m","true"
"","null","html-keyboard-response","182","2.0.0","175957","p9gaua7n50t","bigger","A1","if image sizes made a difference to reaction time (bigger images meant you react faster?)","no","<p>Correct!</p>","null","","","","","","",""
"","null","html-keyboard-response","183","2.0.0","176961","p9gaua7n50t","bigger","A1","if image sizes made a difference to reaction time (bigger images meant you react faster?)","no","<div style=""font-size:60px;"">+</div>","null","","","","","","",""
"","609","image-keyboard-response","184","2.0.0","177576","p9gaua7n50t","bigger","A1","if image sizes made a difference to reaction time (bigger images meant you react faster?)","no","stimuli/12-Congruent.jpg","z","","","","","left","z","true"
"","null","html-keyboard-response","185","2.0.0","178481","p9gaua7n50t","bigger","A1","if image sizes made a difference to reaction time (bigger images meant you react faster?)","no","<p>Correct!</p>","null","","","","","","",""
"","null","html-keyboard-response","186","2.0.0","179485","p9gaua7n50t","bigger","A1","if image sizes made a difference to reaction time (bigger images meant you react faster?)","no","<div style=""font-size:60px;"">+</div>","null","","","","","","",""
"","685","image-keyboard-response","187","2.0.0","180175","p9gaua7n50t","bigger","A1","if image sizes made a difference to reaction time (bigger images meant you react faster?)","no","stimuli/15-Inongruent.jpg","m","","","","","right","m","true"
"","null","html-keyboard-response","188","2.0.0","181079","p9gaua7n50t","bigger","A1","if image sizes made a difference to reaction time (bigger images meant you react faster?)","no","<p>Correct!</p>","null","","","","","","",""
"","null","html-keyboard-response","189","2.0.0","182087","p9gaua7n50t","bigger","A1","if image sizes made a difference to reaction time (bigger images meant you react faster?)","no","<div style=""font-size:60px;"">+</div>","null","","","","","","",""
"","441","image-keyboard-response","190","2.0.0","182535","p9gaua7n50t","bigger","A1","if image sizes made a difference to reaction time (bigger images meant you react faster?)","no","stimuli/6-Inongruent.jpg","m","","","","","right","m","true"
"","null","html-keyboard-response","191","2.0.0","183442","p9gaua7n50t","bigger","A1","if image sizes made a difference to reaction time (bigger images meant you react faster?)","no","<p>Correct!</p>","null","","","","","","",""
"","null","html-keyboard-response","192","2.0.0","184449","p9gaua7n50t","bigger","A1","if image sizes made a difference to reaction time (bigger images meant you react faster?)","no","<div style=""font-size:60px;"">+</div>","null","","","","","","",""
"","613","image-keyboard-response","193","2.0.0","185066","p9gaua7n50t","bigger","A1","if image sizes made a difference to reaction time (bigger images meant you react faster?)","no","stimuli/22-Congruent.jpg","z","","","","","left","z","true"
"","null","html-keyboard-response","194","2.0.0","185978","p9gaua7n50t","bigger","A1","if image sizes made a difference to reaction time (bigger images meant you react faster?)","no","<p>Correct!</p>","null","","","","","","",""
"","null","html-keyboard-response","195","2.0.0","187107","p9gaua7n50t","bigger","A1","if image sizes made a difference to reaction time (bigger images meant you react faster?)","no","<div style=""font-size:60px;"">+</div>","null","","","","","","",""
"","508","image-keyboard-response","196","2.0.0","187617","p9gaua7n50t","bigger","A1","if image sizes made a difference to reaction time (bigger images meant you react faster?)","no","stimuli/34-Congruent.jpg","z","","","","","left","z","true"
"","null","html-keyboard-response","197","2.0.0","188523","p9gaua7n50t","bigger","A1","if image sizes made a difference to reaction time (bigger images meant you react faster?)","no","<p>Correct!</p>","null","","","","","","",""
"","null","html-keyboard-response","198","2.0.0","189537","p9gaua7n50t","bigger","A1","if image sizes made a difference to reaction time (bigger images meant you react faster?)","no","<div style=""font-size:60px;"">+</div>","null","","","","","","",""
"","408","image-keyboard-response","199","2.0.0","189951","p9gaua7n50t","bigger","A1","if image sizes made a difference to reaction time (bigger images meant you react faster?)","no","stimuli/32-Inongruent.jpg","m","","","","","right","m","true"
"","null","html-keyboard-response","200","2.0.0","190864","p9gaua7n50t","bigger","A1","if image sizes made a difference to reaction time (bigger images meant you react faster?)","no","<p>Correct!</p>","null","","","","","","",""
"","null","html-keyboard-response","201","2.0.0","191867","p9gaua7n50t","bigger","A1","if image sizes made a difference to reaction time (bigger images meant you react faster?)","no","<div style=""font-size:60px;"">+</div>","null","","","","","","",""
"","439","image-keyboard-response","202","2.0.0","192314","p9gaua7n50t","bigger","A1","if image sizes made a difference to reaction time (bigger images meant you react faster?)","no","stimuli/24-Congruent.jpg","z","","","","","left","z","true"
"","null","html-keyboard-response","203","2.0.0","193224","p9gaua7n50t","bigger","A1","if image sizes made a difference to reaction time (bigger images meant you react faster?)","no","<p>Correct!</p>","null","","","","","","",""
"","null","html-keyboard-response","204","2.0.0","194228","p9gaua7n50t","bigger","A1","if image sizes made a difference to reaction time (bigger images meant you react faster?)","no","<div style=""font-size:60px;"">+</div>","null","","","","","","",""
"","641","image-keyboard-response","205","2.0.0","194875","p9gaua7n50t","bigger","A1","if image sizes made a difference to reaction time (bigger images meant you react faster?)","no","stimuli/35-Congruent.jpg","z","","","","","left","z","true"
"","null","html-keyboard-response","206","2.0.0","195789","p9gaua7n50t","bigger","A1","if image sizes made a difference to reaction time (bigger images meant you react faster?)","no","<p>Correct!</p>","null","","","","","","",""
"","null","html-keyboard-response","207","2.0.0","196791","p9gaua7n50t","bigger","A1","if image sizes made a difference to reaction time (bigger images meant you react faster?)","no","<div style=""font-size:60px;"">+</div>","null","","","","","","",""
"","507","image-keyboard-response","208","2.0.0","197300","p9gaua7n50t","bigger","A1","if image sizes made a difference to reaction time (bigger images meant you react faster?)","no","stimuli/6-Inongruent.jpg","m","","","","","right","m","true"
"","null","html-keyboard-response","209","2.0.0","198244","p9gaua7n50t","bigger","A1","if image sizes made a difference to reaction time (bigger images meant you react faster?)","no","<p>Correct!</p>","null","","","","","","",""
"","null","html-keyboard-response","210","2.0.0","199251","p9gaua7n50t","bigger","A1","if image sizes made a difference to reaction time (bigger images meant you react faster?)","no","<div style=""font-size:60px;"">+</div>","null","","","","","","",""
"","457","image-keyboard-response","211","2.0.0","199708","p9gaua7n50t","bigger","A1","if image sizes made a difference to reaction time (bigger images meant you react faster?)","no","stimuli/8-Congruent.jpg","z","","","","","left","z","true"
"","null","html-keyboard-response","212","2.0.0","200610","p9gaua7n50t","bigger","A1","if image sizes made a difference to reaction time (bigger images meant you react faster?)","no","<p>Correct!</p>","null","","","","","","",""
"","null","html-keyboard-response","213","2.0.0","201615","p9gaua7n50t","bigger","A1","if image sizes made a difference to reaction time (bigger images meant you react faster?)","no","<div style=""font-size:60px;"">+</div>","null","","","","","","",""
"","782","image-keyboard-response","214","2.0.0","202403","p9gaua7n50t","bigger","A1","if image sizes made a difference to reaction time (bigger images meant you react faster?)","no","stimuli/13-Inongruent.jpg","m","","","","","right","m","true"
"","null","html-keyboard-response","215","2.0.0","203331","p9gaua7n50t","bigger","A1","if image sizes made a difference to reaction time (bigger images meant you react faster?)","no","<p>Correct!</p>","null","","","","","","",""
"","null","html-keyboard-response","216","2.0.0","204336","p9gaua7n50t","bigger","A1","if image sizes made a difference to reaction time (bigger images meant you react faster?)","no","<div style=""font-size:60px;"">+</div>","null","","","","","","",""
"","513","image-keyboard-response","217","2.0.0","204853","p9gaua7n50t","bigger","A1","if image sizes made a difference to reaction time (bigger images meant you react faster?)","no","stimuli/28-Congruent.jpg","z","","","","","left","z","true"
"","null","html-keyboard-response","218","2.0.0","205766","p9gaua7n50t","bigger","A1","if image sizes made a difference to reaction time (bigger images meant you react faster?)","no","<p>Correct!</p>","null","","","","","","",""
"","null","html-keyboard-response","219","2.0.0","206774","p9gaua7n50t","bigger","A1","if image sizes made a difference to reaction time (bigger images meant you react faster?)","no","<div style=""font-size:60px;"">+</div>","null","","","","","","",""
"","500","image-keyboard-response","220","2.0.0","207280","p9gaua7n50t","bigger","A1","if image sizes made a difference to reaction time (bigger images meant you react faster?)","no","stimuli/30-Congruent.jpg","z","","","","","left","z","true"
"","null","html-keyboard-response","221","2.0.0","208181","p9gaua7n50t","bigger","A1","if image sizes made a difference to reaction time (bigger images meant you react faster?)","no","<p>Correct!</p>","null","","","","","","",""
"","null","html-keyboard-response","222","2.0.0","209195","p9gaua7n50t","bigger","A1","if image sizes made a difference to reaction time (bigger images meant you react faster?)","no","<div style=""font-size:60px;"">+</div>","null","","","","","","",""
"","429","image-keyboard-response","223","2.0.0","209631","p9gaua7n50t","bigger","A1","if image sizes made a difference to reaction time (bigger images meant you react faster?)","no","stimuli/2-Inongruent.jpg","m","","","","","right","m","true"
"","null","html-keyboard-response","224","2.0.0","210537","p9gaua7n50t","bigger","A1","if image sizes made a difference to reaction time (bigger images meant you react faster?)","no","<p>Correct!</p>","null","","","","","","",""
"","null","html-keyboard-response","225","2.0.0","211541","p9gaua7n50t","bigger","A1","if image sizes made a difference to reaction time (bigger images meant you react faster?)","no","<div style=""font-size:60px;"">+</div>","null","","","","","","",""
"","508","image-keyboard-response","226","2.0.0","212051","p9gaua7n50t","bigger","A1","if image sizes made a difference to reaction time (bigger images meant you react faster?)","no","stimuli/7-Congruent.jpg","z","","","","","left","z","true"
"","null","html-keyboard-response","227","2.0.0","212961","p9gaua7n50t","bigger","A1","if image sizes made a difference to reaction time (bigger images meant you react faster?)","no","<p>Correct!</p>","null","","","","","","",""
"","null","html-keyboard-response","228","2.0.0","213962","p9gaua7n50t","bigger","A1","if image sizes made a difference to reaction time (bigger images meant you react faster?)","no","<div style=""font-size:60px;"">+</div>","null","","","","","","",""
"","518","image-keyboard-response","229","2.0.0","214483","p9gaua7n50t","bigger","A1","if image sizes made a difference to reaction time (bigger images meant you react faster?)","no","stimuli/13-Congruent.jpg","z","","","","","left","z","true"
"","null","html-keyboard-response","230","2.0.0","215420","p9gaua7n50t","bigger","A1","if image sizes made a difference to reaction time (bigger images meant you react faster?)","no","<p>Correct!</p>","null","","","","","","",""
"","null","html-keyboard-response","231","2.0.0","216422","p9gaua7n50t","bigger","A1","if image sizes made a difference to reaction time (bigger images meant you react faster?)","no","<div style=""font-size:60px;"">+</div>","null","","","","","","",""
"","917","image-keyboard-response","232","2.0.0","217346","p9gaua7n50t","bigger","A1","if image sizes made a difference to reaction time (bigger images meant you react faster?)","no","stimuli/11-Congruent.jpg","z","","","","","left","z","true"
"","null","html-keyboard-response","233","2.0.0","218251","p9gaua7n50t","bigger","A1","if image sizes made a difference to reaction time (bigger images meant you react faster?)","no","<p>Correct!</p>","null","","","","","","",""
"","null","html-keyboard-response","234","2.0.0","219321","p9gaua7n50t","bigger","A1","if image sizes made a difference to reaction time (bigger images meant you react faster?)","no","<div style=""font-size:60px;"">+</div>","null","","","","","","",""
"","631","image-keyboard-response","235","2.0.0","219957","p9gaua7n50t","bigger","A1","if image sizes made a difference to reaction time (bigger images meant you react faster?)","no","stimuli/34-Inongruent.jpg","m","","","","","right","m","true"
"","null","html-keyboard-response","236","2.0.0","220868","p9gaua7n50t","bigger","A1","if image sizes made a difference to reaction time (bigger images meant you react faster?)","no","<p>Correct!</p>","null","","","","","","",""
"","null","html-keyboard-response","237","2.0.0","221870","p9gaua7n50t","bigger","A1","if image sizes made a difference to reaction time (bigger images meant you react faster?)","no","<div style=""font-size:60px;"">+</div>","null","","","","","","",""
"","445","image-keyboard-response","238","2.0.0","222321","p9gaua7n50t","bigger","A1","if image sizes made a difference to reaction time (bigger images meant you react faster?)","no","stimuli/19-Inongruent.jpg","m","","","","","right","m","true"
"","null","html-keyboard-response","239","2.0.0","223232","p9gaua7n50t","bigger","A1","if image sizes made a difference to reaction time (bigger images meant you react faster?)","no","<p>Correct!</p>","null","","","","","","",""
"","null","html-keyboard-response","240","2.0.0","224332","p9gaua7n50t","bigger","A1","if image sizes made a difference to reaction time (bigger images meant you react faster?)","no","<div style=""font-size:60px;"">+</div>","null","","","","","","",""
"","455","image-keyboard-response","241","2.0.0","224792","p9gaua7n50t","bigger","A1","if image sizes made a difference to reaction time (bigger images meant you react faster?)","no","stimuli/31-Congruent.jpg","z","","","","","left","z","true"
"","null","html-keyboard-response","242","2.0.0","225693","p9gaua7n50t","bigger","A1","if image sizes made a difference to reaction time (bigger images meant you react faster?)","no","<p>Correct!</p>","null","","","","","","",""
"","null","html-keyboard-response","243","2.0.0","226700","p9gaua7n50t","bigger","A1","if image sizes made a difference to reaction time (bigger images meant you react faster?)","no","<div style=""font-size:60px;"">+</div>","null","","","","","","",""
"","487","image-keyboard-response","244","2.0.0","227192","p9gaua7n50t","bigger","A1","if image sizes made a difference to reaction time (bigger images meant you react faster?)","no","stimuli/36-Congruent.jpg","z","","","","","left","z","true"
"","null","html-keyboard-response","245","2.0.0","228108","p9gaua7n50t","bigger","A1","if image sizes made a difference to reaction time (bigger images meant you react faster?)","no","<p>Correct!</p>","null","","","","","","",""
"","null","html-keyboard-response","246","2.0.0","229113","p9gaua7n50t","bigger","A1","if image sizes made a difference to reaction time (bigger images meant you react faster?)","no","<div style=""font-size:60px;"">+</div>","null","","","","","","",""
"","463","image-keyboard-response","247","2.0.0","229584","p9gaua7n50t","bigger","A1","if image sizes made a difference to reaction time (bigger images meant you react faster?)","no","stimuli/27-Congruent.jpg","z","","","","","left","z","true"
"","null","html-keyboard-response","248","2.0.0","230541","p9gaua7n50t","bigger","A1","if image sizes made a difference to reaction time (bigger images meant you react faster?)","no","<p>Correct!</p>","null","","","","","","",""
"","null","html-keyboard-response","249","2.0.0","231552","p9gaua7n50t","bigger","A1","if image sizes made a difference to reaction time (bigger images meant you react faster?)","no","<div style=""font-size:60px;"">+</div>","null","","","","","","",""
"","439","image-keyboard-response","250","2.0.0","231996","p9gaua7n50t","bigger","A1","if image sizes made a difference to reaction time (bigger images meant you react faster?)","no","stimuli/35-Inongruent.jpg","m","","","","","right","m","true"
"","null","html-keyboard-response","251","2.0.0","232899","p9gaua7n50t","bigger","A1","if image sizes made a difference to reaction time (bigger images meant you react faster?)","no","<p>Correct!</p>","null","","","","","","",""
"","null","html-keyboard-response","252","2.0.0","233906","p9gaua7n50t","bigger","A1","if image sizes made a difference to reaction time (bigger images meant you react faster?)","no","<div style=""font-size:60px;"">+</div>","null","","","","","","",""
"","669","image-keyboard-response","253","2.0.0","234582","p9gaua7n50t","bigger","A1","if image sizes made a difference to reaction time (bigger images meant you react faster?)","no","stimuli/19-Congruent.jpg","z","","","","","left","z","true"
"","null","html-keyboard-response","254","2.0.0","235575","p9gaua7n50t","bigger","A1","if image sizes made a difference to reaction time (bigger images meant you react faster?)","no","<p>Correct!</p>","null","","","","","","",""
"","null","html-keyboard-response","255","2.0.0","236579","p9gaua7n50t","bigger","A1","if image sizes made a difference to reaction time (bigger images meant you react faster?)","no","<div style=""font-size:60px;"">+</div>","null","","","","","","",""
"","446","image-keyboard-response","256","2.0.0","237032","p9gaua7n50t","bigger","A1","if image sizes made a difference to reaction time (bigger images meant you react faster?)","no","stimuli/14-Inongruent.jpg","m","","","","","right","m","true"
"","null","html-keyboard-response","257","2.0.0","237941","p9gaua7n50t","bigger","A1","if image sizes made a difference to reaction time (bigger images meant you react faster?)","no","<p>Correct!</p>","null","","","","","","",""
"","null","html-keyboard-response","258","2.0.0","238942","p9gaua7n50t","bigger","A1","if image sizes made a difference to reaction time (bigger images meant you react faster?)","no","<div style=""font-size:60px;"">+</div>","null","","","","","","",""
"","665","image-keyboard-response","259","2.0.0","239607","p9gaua7n50t","bigger","A1","if image sizes made a difference to reaction time (bigger images meant you react faster?)","no","stimuli/12-Congruent.jpg","z","","","","","left","z","true"
"","null","html-keyboard-response","260","2.0.0","240617","p9gaua7n50t","bigger","A1","if image sizes made a difference to reaction time (bigger images meant you react faster?)","no","<p>Correct!</p>","null","","","","","","",""
"","null","html-keyboard-response","261","2.0.0","241622","p9gaua7n50t","bigger","A1","if image sizes made a difference to reaction time (bigger images meant you react faster?)","no","<div style=""font-size:60px;"">+</div>","null","","","","","","",""
"","394","image-keyboard-response","262","2.0.0","242022","p9gaua7n50t","bigger","A1","if image sizes made a difference to reaction time (bigger images meant you react faster?)","no","stimuli/11-Inongruent.jpg","m","","","","","right","m","true"
"","null","html-keyboard-response","263","2.0.0","242923","p9gaua7n50t","bigger","A1","if image sizes made a difference to reaction time (bigger images meant you react faster?)","no","<p>Correct!</p>","null","","","","","","",""
"","null","html-keyboard-response","264","2.0.0","243925","p9gaua7n50t","bigger","A1","if image sizes made a difference to reaction time (bigger images meant you react faster?)","no","<div style=""font-size:60px;"">+</div>","null","","","","","","",""
"","549","image-keyboard-response","265","2.0.0","244480","p9gaua7n50t","bigger","A1","if image sizes made a difference to reaction time (bigger images meant you react faster?)","no","stimuli/17-Inongruent.jpg","m","","","","","right","m","true"
"","null","html-keyboard-response","266","2.0.0","245395","p9gaua7n50t","bigger","A1","if image sizes made a difference to reaction time (bigger images meant you react faster?)","no","<p>Correct!</p>","null","","","","","","",""
"","null","html-keyboard-response","267","2.0.0","246409","p9gaua7n50t","bigger","A1","if image sizes made a difference to reaction time (bigger images meant you react faster?)","no","<div style=""font-size:60px;"">+</div>","null","","","","","","",""
"","510","image-keyboard-response","268","2.0.0","246921","p9gaua7n50t","bigger","A1","if image sizes made a difference to reaction time (bigger images meant you react faster?)","no","stimuli/34-Inongruent.jpg","m","","","","","right","m","true"
"","null","html-keyboard-response","269","2.0.0","247832","p9gaua7n50t","bigger","A1","if image sizes made a difference to reaction time (bigger images meant you react faster?)","no","<p>Correct!</p>","null","","","","","","",""
"","null","html-keyboard-response","270","2.0.0","248836","p9gaua7n50t","bigger","A1","if image sizes made a difference to reaction time (bigger images meant you react faster?)","no","<div style=""font-size:60px;"">+</div>","null","","","","","","",""
"","338","image-keyboard-response","271","2.0.0","249176","p9gaua7n50t","bigger","A1","if image sizes made a difference to reaction time (bigger images meant you react faster?)","no","stimuli/15-Inongruent.jpg","m","","","","","right","m","true"
"","null","html-keyboard-response","272","2.0.0","250088","p9gaua7n50t","bigger","A1","if image sizes made a difference to reaction time (bigger images meant you react faster?)","no","<p>Correct!</p>","null","","","","","","",""
"","null","html-keyboard-response","273","2.0.0","251103","p9gaua7n50t","bigger","A1","if image sizes made a difference to reaction time (bigger images meant you react faster?)","no","<div style=""font-size:60px;"">+</div>","null","","","","","","",""
"","399","image-keyboard-response","274","2.0.0","251508","p9gaua7n50t","bigger","A1","if image sizes made a difference to reaction time (bigger images meant you react faster?)","no","stimuli/36-Inongruent.jpg","m","","","","","right","m","true"
"","null","html-keyboard-response","275","2.0.0","252415","p9gaua7n50t","bigger","A1","if image sizes made a difference to reaction time (bigger images meant you react faster?)","no","<p>Correct!</p>","null","","","","","","",""
"","null","html-keyboard-response","276","2.0.0","253420","p9gaua7n50t","bigger","A1","if image sizes made a difference to reaction time (bigger images meant you react faster?)","no","<div style=""font-size:60px;"">+</div>","null","","","","","","",""
"","402","image-keyboard-response","277","2.0.0","253829","p9gaua7n50t","bigger","A1","if image sizes made a difference to reaction time (bigger images meant you react faster?)","no","stimuli/32-Congruent.jpg","z","","","","","left","z","true"
"","null","html-keyboard-response","278","2.0.0","254740","p9gaua7n50t","bigger","A1","if image sizes made a difference to reaction time (bigger images meant you react faster?)","no","<p>Correct!</p>","null","","","","","","",""
"","null","html-keyboard-response","279","2.0.0","255746","p9gaua7n50t","bigger","A1","if image sizes made a difference to reaction time (bigger images meant you react faster?)","no","<div style=""font-size:60px;"">+</div>","null","","","","","","",""
"","422","image-keyboard-response","280","2.0.0","256172","p9gaua7n50t","bigger","A1","if image sizes made a difference to reaction time (bigger images meant you react faster?)","no","stimuli/25-Inongruent.jpg","m","","","","","right","m","true"
"","null","html-keyboard-response","281","2.0.0","257075","p9gaua7n50t","bigger","A1","if image sizes made a difference to reaction time (bigger images meant you react faster?)","no","<p>Correct!</p>","null","","","","","","",""
"","null","html-keyboard-response","282","2.0.0","258083","p9gaua7n50t","bigger","A1","if image sizes made a difference to reaction time (bigger images meant you react faster?)","no","<div style=""font-size:60px;"">+</div>","null","","","","","","",""
"","490","image-keyboard-response","283","2.0.0","258581","p9gaua7n50t","bigger","A1","if image sizes made a difference to reaction time (bigger images meant you react faster?)","no","stimuli/17-Congruent.jpg","z","","","","","left","z","true"
"","null","html-keyboard-response","284","2.0.0","259491","p9gaua7n50t","bigger","A1","if image sizes made a difference to reaction time (bigger images meant you react faster?)","no","<p>Correct!</p>","null","","","","","","",""
"","null","html-keyboard-response","285","2.0.0","260498","p9gaua7n50t","bigger","A1","if image sizes made a difference to reaction time (bigger images meant you react faster?)","no","<div style=""font-size:60px;"">+</div>","null","","","","","","",""
"","565","image-keyboard-response","286","2.0.0","261069","p9gaua7n50t","bigger","A1","if image sizes made a difference to reaction time (bigger images meant you react faster?)","no","stimuli/15-Congruent.jpg","z","","","","","left","z","true"
"","null","html-keyboard-response","287","2.0.0","261980","p9gaua7n50t","bigger","A1","if image sizes made a difference to reaction time (bigger images meant you react faster?)","no","<p>Correct!</p>","null","","","","","","",""
"","null","html-keyboard-response","288","2.0.0","262983","p9gaua7n50t","bigger","A1","if image sizes made a difference to reaction time (bigger images meant you react faster?)","no","<div style=""font-size:60px;"">+</div>","null","","","","","","",""
"","525","image-keyboard-response","289","2.0.0","263512","p9gaua7n50t","bigger","A1","if image sizes made a difference to reaction time (bigger images meant you react faster?)","no","stimuli/17-Inongruent.jpg","m","","","","","right","m","true"
"","null","html-keyboard-response","290","2.0.0","264422","p9gaua7n50t","bigger","A1","if image sizes made a difference to reaction time (bigger images meant you react faster?)","no","<p>Correct!</p>","null","","","","","","",""
"","null","html-keyboard-response","291","2.0.0","265427","p9gaua7n50t","bigger","A1","if image sizes made a difference to reaction time (bigger images meant you react faster?)","no","<div style=""font-size:60px;"">+</div>","null","","","","","","",""
"","604","image-keyboard-response","292","2.0.0","266033","p9gaua7n50t","bigger","A1","if image sizes made a difference to reaction time (bigger images meant you react faster?)","no","stimuli/11-Congruent.jpg","z","","","","","left","z","true"
"","null","html-keyboard-response","293","2.0.0","266944","p9gaua7n50t","bigger","A1","if image sizes made a difference to reaction time (bigger images meant you react faster?)","no","<p>Correct!</p>","null","","","","","","",""
"","null","html-keyboard-response","294","2.0.0","267950","p9gaua7n50t","bigger","A1","if image sizes made a difference to reaction time (bigger images meant you react faster?)","no","<div style=""font-size:60px;"">+</div>","null","","","","","","",""
"","734","image-keyboard-response","295","2.0.0","268689","p9gaua7n50t","bigger","A1","if image sizes made a difference to reaction time (bigger images meant you react faster?)","no","stimuli/2-Congruent.jpg","z","","","","","left","z","true"
"","null","html-keyboard-response","296","2.0.0","269601","p9gaua7n50t","bigger","A1","if image sizes made a difference to reaction time (bigger images meant you react faster?)","no","<p>Correct!</p>","null","","","","","","",""
"","null","html-keyboard-response","297","2.0.0","270606","p9gaua7n50t","bigger","A1","if image sizes made a difference to reaction time (bigger images meant you react faster?)","no","<div style=""font-size:60px;"">+</div>","null","","","","","","",""
"","817","image-keyboard-response","298","2.0.0","271429","p9gaua7n50t","bigger","A1","if image sizes made a difference to reaction time (bigger images meant you react faster?)","no","stimuli/5-Congruent.jpg","z","","","","","left","z","true"
"","null","html-keyboard-response","299","2.0.0","272338","p9gaua7n50t","bigger","A1","if image sizes made a difference to reaction time (bigger images meant you react faster?)","no","<p>Correct!</p>","null","","","","","","",""
"","null","html-keyboard-response","300","2.0.0","273345","p9gaua7n50t","bigger","A1","if image sizes made a difference to reaction time (bigger images meant you react faster?)","no","<div style=""font-size:60px;"">+</div>","null","","","","","","",""
"","440","image-keyboard-response","301","2.0.0","273787","p9gaua7n50t","bigger","A1","if image sizes made a difference to reaction time (bigger images meant you react faster?)","no","stimuli/32-Congruent.jpg","z","","","","","left","z","true"
"","null","html-keyboard-response","302","2.0.0","274693","p9gaua7n50t","bigger","A1","if image sizes made a difference to reaction time (bigger images meant you react faster?)","no","<p>Correct!</p>","null","","","","","","",""
"","null","html-keyboard-response","303","2.0.0","275703","p9gaua7n50t","bigger","A1","if image sizes made a difference to reaction time (bigger images meant you react faster?)","no","<div style=""font-size:60px;"">+</div>","null","","","","","","",""
"","542","image-keyboard-response","304","2.0.0","276246","p9gaua7n50t","bigger","A1","if image sizes made a difference to reaction time (bigger images meant you react faster?)","no","stimuli/25-Inongruent.jpg","m","","","","","right","m","true"
"","null","html-keyboard-response","305","2.0.0","277159","p9gaua7n50t","bigger","A1","if image sizes made a difference to reaction time (bigger images meant you react faster?)","no","<p>Correct!</p>","null","","","","","","",""
"","null","html-keyboard-response","306","2.0.0","278162","p9gaua7n50t","bigger","A1","if image sizes made a difference to reaction time (bigger images meant you react faster?)","no","<div style=""font-size:60px;"">+</div>","null","","","","","","",""
"","649","image-keyboard-response","307","2.0.0","278811","p9gaua7n50t","bigger","A1","if image sizes made a difference to reaction time (bigger images meant you react faster?)","no","stimuli/19-Congruent.jpg","z","","","","","left","z","true"
"","null","html-keyboard-response","308","2.0.0","279722","p9gaua7n50t","bigger","A1","if image sizes made a difference to reaction time (bigger images meant you react faster?)","no","<p>Correct!</p>","null","","","","","","",""
"","null","html-keyboard-response","309","2.0.0","280728","p9gaua7n50t","bigger","A1","if image sizes made a difference to reaction time (bigger images meant you react faster?)","no","<div style=""font-size:60px;"">+</div>","null","","","","","","",""
"","452","image-keyboard-response","310","2.0.0","281186","p9gaua7n50t","bigger","A1","if image sizes made a difference to reaction time (bigger images meant you react faster?)","no","stimuli/32-Inongruent.jpg","m","","","","","right","m","true"
"","null","html-keyboard-response","311","2.0.0","282183","p9gaua7n50t","bigger","A1","if image sizes made a difference to reaction time (bigger images meant you react faster?)","no","<p>Correct!</p>","null","","","","","","",""
"","null","html-keyboard-response","312","2.0.0","283190","p9gaua7n50t","bigger","A1","if image sizes made a difference to reaction time (bigger images meant you react faster?)","no","<div style=""font-size:60px;"">+</div>","null","","","","","","",""
"","326","image-keyboard-response","313","2.0.0","283522","p9gaua7n50t","bigger","A1","if image sizes made a difference to reaction time (bigger images meant you react faster?)","no","stimuli/4-Congruent.jpg","z","","","","","left","z","true"
"","null","html-keyboard-response","314","2.0.0","284425","p9gaua7n50t","bigger","A1","if image sizes made a difference to reaction time (bigger images meant you react faster?)","no","<p>Correct!</p>","null","","","","","","",""
"","null","html-keyboard-response","315","2.0.0","285431","p9gaua7n50t","bigger","A1","if image sizes made a difference to reaction time (bigger images meant you react faster?)","no","<div style=""font-size:60px;"">+</div>","null","","","","","","",""
"","405","image-keyboard-response","316","2.0.0","285843","p9gaua7n50t","bigger","A1","if image sizes made a difference to reaction time (bigger images meant you react faster?)","no","stimuli/27-Inongruent.jpg","m","","","","","right","m","true"
"","null","html-keyboard-response","317","2.0.0","286756","p9gaua7n50t","bigger","A1","if image sizes made a difference to reaction time (bigger images meant you react faster?)","no","<p>Correct!</p>","null","","","","","","",""
"","null","html-keyboard-response","318","2.0.0","287761","p9gaua7n50t","bigger","A1","if image sizes made a difference to reaction time (bigger images meant you react faster?)","no","<div style=""font-size:60px;"">+</div>","null","","","","","","",""
"","410","image-keyboard-response","319","2.0.0","288177","p9gaua7n50t","bigger","A1","if image sizes made a difference to reaction time (bigger images meant you react faster?)","no","stimuli/4-Inongruent.jpg","m","","","","","right","m","true"
"","null","html-keyboard-response","320","2.0.0","289081","p9gaua7n50t","bigger","A1","if image sizes made a difference to reaction time (bigger images meant you react faster?)","no","<p>Correct!</p>","null","","","","","","",""
"","null","html-keyboard-response","321","2.0.0","290088","p9gaua7n50t","bigger","A1","if image sizes made a difference to reaction time (bigger images meant you react faster?)","no","<div style=""font-size:60px;"">+</div>","null","","","","","","",""
"","373","image-keyboard-response","322","2.0.0","290467","p9gaua7n50t","bigger","A1","if image sizes made a difference to reaction time (bigger images meant you react faster?)","no","stimuli/14-Congruent.jpg","z","","","","","left","z","true"
"","null","html-keyboard-response","323","2.0.0","291373","p9gaua7n50t","bigger","A1","if image sizes made a difference to reaction time (bigger images meant you react faster?)","no","<p>Correct!</p>","null","","","","","","",""
"","null","html-keyboard-response","324","2.0.0","292377","p9gaua7n50t","bigger","A1","if image sizes made a difference to reaction time (bigger images meant you react faster?)","no","<div style=""font-size:60px;"">+</div>","null","","","","","","",""
"","375","image-keyboard-response","325","2.0.0","292754","p9gaua7n50t","bigger","A1","if image sizes made a difference to reaction time (bigger images meant you react faster?)","no","stimuli/31-Congruent.jpg","z","","","","","left","z","true"
"","null","html-keyboard-response","326","2.0.0","293660","p9gaua7n50t","bigger","A1","if image sizes made a difference to reaction time (bigger images meant you react faster?)","no","<p>Correct!</p>","null","","","","","","",""
"","null","html-keyboard-response","327","2.0.0","294662","p9gaua7n50t","bigger","A1","if image sizes made a difference to reaction time (bigger images meant you react faster?)","no","<div style=""font-size:60px;"">+</div>","null","","","","","","",""
"","399","image-keyboard-response","328","2.0.0","295067","p9gaua7n50t","bigger","A1","if image sizes made a difference to reaction time (bigger images meant you react faster?)","no","stimuli/16-Congruent.jpg","z","","","","","left","z","true"
"","null","html-keyboard-response","329","2.0.0","295975","p9gaua7n50t","bigger","A1","if image sizes made a difference to reaction time (bigger images meant you react faster?)","no","<p>Correct!</p>","null","","","","","","",""
"","null","html-keyboard-response","330","2.0.0","296980","p9gaua7n50t","bigger","A1","if image sizes made a difference to reaction time (bigger images meant you react faster?)","no","<div style=""font-size:60px;"">+</div>","null","","","","","","",""
"","398","image-keyboard-response","331","2.0.0","297378","p9gaua7n50t","bigger","A1","if image sizes made a difference to reaction time (bigger images meant you react faster?)","no","stimuli/2-Congruent.jpg","z","","","","","left","z","true"
"","null","html-keyboard-response","332","2.0.0","298282","p9gaua7n50t","bigger","A1","if image sizes made a difference to reaction time (bigger images meant you react faster?)","no","<p>Correct!</p>","null","","","","","","",""
"","null","html-keyboard-response","333","2.0.0","299284","p9gaua7n50t","bigger","A1","if image sizes made a difference to reaction time (bigger images meant you react faster?)","no","<div style=""font-size:60px;"">+</div>","null","","","","","","",""
"","652","image-keyboard-response","334","2.0.0","299939","p9gaua7n50t","bigger","A1","if image sizes made a difference to reaction time (bigger images meant you react faster?)","no","stimuli/3-Congruent.jpg","z","","","","","left","z","true"
"","null","html-keyboard-response","335","2.0.0","300850","p9gaua7n50t","bigger","A1","if image sizes made a difference to reaction time (bigger images meant you react faster?)","no","<p>Correct!</p>","null","","","","","","",""
"","null","html-keyboard-response","336","2.0.0","301856","p9gaua7n50t","bigger","A1","if image sizes made a difference to reaction time (bigger images meant you react faster?)","no","<div style=""font-size:60px;"">+</div>","null","","","","","","",""
"","386","image-keyboard-response","337","2.0.0","302244","p9gaua7n50t","bigger","A1","if image sizes made a difference to reaction time (bigger images meant you react faster?)","no","stimuli/4-Inongruent.jpg","m","","","","","right","m","true"
"","null","html-keyboard-response","338","2.0.0","303157","p9gaua7n50t","bigger","A1","if image sizes made a difference to reaction time (bigger images meant you react faster?)","no","<p>Correct!</p>","null","","","","","","",""
"","null","html-keyboard-response","339","2.0.0","304160","p9gaua7n50t","bigger","A1","if image sizes made a difference to reaction time (bigger images meant you react faster?)","no","<div style=""font-size:60px;"">+</div>","null","","","","","","",""
"","433","image-keyboard-response","340","2.0.0","304598","p9gaua7n50t","bigger","A1","if image sizes made a difference to reaction time (bigger images meant you react faster?)","no","stimuli/29-Inongruent.jpg","m","","","","","right","m","true"
"","null","html-keyboard-response","341","2.0.0","305538","p9gaua7n50t","bigger","A1","if image sizes made a difference to reaction time (bigger images meant you react faster?)","no","<p>Correct!</p>","null","","","","","","",""
"","null","html-keyboard-response","342","2.0.0","306546","p9gaua7n50t","bigger","A1","if image sizes made a difference to reaction time (bigger images meant you react faster?)","no","<div style=""font-size:60px;"">+</div>","null","","","","","","",""
"","455","image-keyboard-response","343","2.0.0","307010","p9gaua7n50t","bigger","A1","if image sizes made a difference to reaction time (bigger images meant you react faster?)","no","stimuli/26-Inongruent.jpg","z","","","","","right","m","false"
"","null","html-keyboard-response","344","2.0.0","312260","p9gaua7n50t","bigger","A1","if image sizes made a difference to reaction time (bigger images meant you react faster?)","no","<p>Incorrect.</p><p>Remember to select the <b>bigger</b> image.</p><p>Continuing in 5 seconds...</p>","null","","","","","","",""
"","null","html-keyboard-response","345","2.0.0","313265","p9gaua7n50t","bigger","A1","if image sizes made a difference to reaction time (bigger images meant you react faster?)","no","<div style=""font-size:60px;"">+</div>","null","","","","","","",""
"","557","image-keyboard-response","346","2.0.0","313824","p9gaua7n50t","bigger","A1","if image sizes made a difference to reaction time (bigger images meant you react faster?)","no","stimuli/14-Congruent.jpg","z","","","","","left","z","true"
"","null","html-keyboard-response","347","2.0.0","314740","p9gaua7n50t","bigger","A1","if image sizes made a difference to reaction time (bigger images meant you react faster?)","no","<p>Correct!</p>","null","","","","","","",""
"","null","html-keyboard-response","348","2.0.0","315740","p9gaua7n50t","bigger","A1","if image sizes made a difference to reaction time (bigger images meant you react faster?)","no","<div style=""font-size:60px;"">+</div>","null","","","","","","",""
"","438","image-keyboard-response","349","2.0.0","316186","p9gaua7n50t","bigger","A1","if image sizes made a difference to reaction time (bigger images meant you react faster?)","no","stimuli/24-Inongruent.jpg","m","","","","","right","m","true"
"","null","html-keyboard-response","350","2.0.0","317090","p9gaua7n50t","bigger","A1","if image sizes made a difference to reaction time (bigger images meant you react faster?)","no","<p>Correct!</p>","null","","","","","","",""
"","null","html-keyboard-response","351","2.0.0","318096","p9gaua7n50t","bigger","A1","if image sizes made a difference to reaction time (bigger images meant you react faster?)","no","<div style=""font-size:60px;"">+</div>","null","","","","","","",""
"","700","image-keyboard-response","352","2.0.0","318803","p9gaua7n50t","bigger","A1","if image sizes made a difference to reaction time (bigger images meant you react faster?)","no","stimuli/9-Inongruent.jpg","m","","","","","right","m","true"
"","null","html-keyboard-response","353","2.0.0","319705","p9gaua7n50t","bigger","A1","if image sizes made a difference to reaction time (bigger images meant you react faster?)","no","<p>Correct!</p>","null","","","","","","",""
"","null","html-keyboard-response","354","2.0.0","320742","p9gaua7n50t","bigger","A1","if image sizes made a difference to reaction time (bigger images meant you react faster?)","no","<div style=""font-size:60px;"">+</div>","null","","","","","","",""
"","582","image-keyboard-response","355","2.0.0","321330","p9gaua7n50t","bigger","A1","if image sizes made a difference to reaction time (bigger images meant you react faster?)","no","stimuli/16-Inongruent.jpg","m","","","","","right","m","true"
"","null","html-keyboard-response","356","2.0.0","322322","p9gaua7n50t","bigger","A1","if image sizes made a difference to reaction time (bigger images meant you react faster?)","no","<p>Correct!</p>","null","","","","","","",""
"","null","html-keyboard-response","357","2.0.0","323329","p9gaua7n50t","bigger","A1","if image sizes made a difference to reaction time (bigger images meant you react faster?)","no","<div style=""font-size:60px;"">+</div>","null","","","","","","",""
"","593","image-keyboard-response","358","2.0.0","323923","p9gaua7n50t","bigger","A1","if image sizes made a difference to reaction time (bigger images meant you react faster?)","no","stimuli/15-Congruent.jpg","z","","","","","left","z","true"
"","null","html-keyboard-response","359","2.0.0","324833","p9gaua7n50t","bigger","A1","if image sizes made a difference to reaction time (bigger images meant you react faster?)","no","<p>Correct!</p>","null","","","","","","",""
"","null","html-keyboard-response","360","2.0.0","325837","p9gaua7n50t","bigger","A1","if image sizes made a difference to reaction time (bigger images meant you react faster?)","no","<div style=""font-size:60px;"">+</div>","null","","","","","","",""
"","555","image-keyboard-response","361","2.0.0","326398","p9gaua7n50t","bigger","A1","if image sizes made a difference to reaction time (bigger images meant you react faster?)","no","stimuli/18-Congruent.jpg","z","","","","","left","z","true"
"","null","html-keyboard-response","362","2.0.0","327352","p9gaua7n50t","bigger","A1","if image sizes made a difference to reaction time (bigger images meant you react faster?)","no","<p>Correct!</p>","null","","","","","","",""
"","null","html-keyboard-response","363","2.0.0","328359","p9gaua7n50t","bigger","A1","if image sizes made a difference to reaction time (bigger images meant you react faster?)","no","<div style=""font-size:60px;"">+</div>","null","","","","","","",""
"","534","image-keyboard-response","364","2.0.0","328899","p9gaua7n50t","bigger","A1","if image sizes made a difference to reaction time (bigger images meant you react faster?)","no","stimuli/18-Inongruent.jpg","m","","","","","right","m","true"
"","null","html-keyboard-response","365","2.0.0","329811","p9gaua7n50t","bigger","A1","if image sizes made a difference to reaction time (bigger images meant you react faster?)","no","<p>Correct!</p>","null","","","","","","",""
"","null","html-keyboard-response","366","2.0.0","330851","p9gaua7n50t","bigger","A1","if image sizes made a difference to reaction time (bigger images meant you react faster?)","no","<div style=""font-size:60px;"">+</div>","null","","","","","","",""
"","608","image-keyboard-response","367","2.0.0","331464","p9gaua7n50t","bigger","A1","if image sizes made a difference to reaction time (bigger images meant you react faster?)","no","stimuli/35-Congruent.jpg","z","","","","","left","z","true"
"","null","html-keyboard-response","368","2.0.0","332399","p9gaua7n50t","bigger","A1","if image sizes made a difference to reaction time (bigger images meant you react faster?)","no","<p>Correct!</p>","null","","","","","","",""
"","null","html-keyboard-response","369","2.0.0","333405","p9gaua7n50t","bigger","A1","if image sizes made a difference to reaction time (bigger images meant you react faster?)","no","<div style=""font-size:60px;"">+</div>","null","","","","","","",""
"","571","image-keyboard-response","370","2.0.0","333983","p9gaua7n50t","bigger","A1","if image sizes made a difference to reaction time (bigger images meant you react faster?)","no","stimuli/2-Inongruent.jpg","m","","","","","right","m","true"
"","null","html-keyboard-response","371","2.0.0","334888","p9gaua7n50t","bigger","A1","if image sizes made a difference to reaction time (bigger images meant you react faster?)","no","<p>Correct!</p>","null","","","","","","",""
"","null","html-keyboard-response","372","2.0.0","335895","p9gaua7n50t","bigger","A1","if image sizes made a difference to reaction time (bigger images meant you react faster?)","no","<div style=""font-size:60px;"">+</div>","null","","","","","","",""
"","752","image-keyboard-response","373","2.0.0","336653","p9gaua7n50t","bigger","A1","if image sizes made a difference to reaction time (bigger images meant you react faster?)","no","stimuli/31-Inongruent.jpg","m","","","","","right","m","true"
"","null","html-keyboard-response","374","2.0.0","337564","p9gaua7n50t","bigger","A1","if image sizes made a difference to reaction time (bigger images meant you react faster?)","no","<p>Correct!</p>","null","","","","","","",""
"","null","html-keyboard-response","375","2.0.0","338572","p9gaua7n50t","bigger","A1","if image sizes made a difference to reaction time (bigger images meant you react faster?)","no","<div style=""font-size:60px;"">+</div>","null","","","","","","",""
"","599","image-keyboard-response","376","2.0.0","339178","p9gaua7n50t","bigger","A1","if image sizes made a difference to reaction time (bigger images meant you react faster?)","no","stimuli/20-Inongruent.jpg","m","","","","","right","m","true"
"","null","html-keyboard-response","377","2.0.0","340091","p9gaua7n50t","bigger","A1","if image sizes made a difference to reaction time (bigger images meant you react faster?)","no","<p>Correct!</p>","null","","","","","","",""
"","null","html-keyboard-response","378","2.0.0","341097","p9gaua7n50t","bigger","A1","if image sizes made a difference to reaction time (bigger images meant you react faster?)","no","<div style=""font-size:60px;"">+</div>","null","","","","","","",""
"","627","image-keyboard-response","379","2.0.0","341731","p9gaua7n50t","bigger","A1","if image sizes made a difference to reaction time (bigger images meant you react faster?)","no","stimuli/7-Inongruent.jpg","m","","","","","right","m","true"
"","null","html-keyboard-response","380","2.0.0","342631","p9gaua7n50t","bigger","A1","if image sizes made a difference to reaction time (bigger images meant you react faster?)","no","<p>Correct!</p>","null","","","","","","",""
"","null","html-keyboard-response","381","2.0.0","343638","p9gaua7n50t","bigger","A1","if image sizes made a difference to reaction time (bigger images meant you react faster?)","no","<div style=""font-size:60px;"">+</div>","null","","","","","","",""
"","605","image-keyboard-response","382","2.0.0","344248","p9gaua7n50t","bigger","A1","if image sizes made a difference to reaction time (bigger images meant you react faster?)","no","stimuli/22-Congruent.jpg","z","","","","","left","z","true"
"","null","html-keyboard-response","383","2.0.0","345151","p9gaua7n50t","bigger","A1","if image sizes made a difference to reaction time (bigger images meant you react faster?)","no","<p>Correct!</p>","null","","","","","","",""
"","null","html-keyboard-response","384","2.0.0","346156","p9gaua7n50t","bigger","A1","if image sizes made a difference to reaction time (bigger images meant you react faster?)","no","<div style=""font-size:60px;"">+</div>","null","","","","","","",""
"","779","image-keyboard-response","385","2.0.0","346936","p9gaua7n50t","bigger","A1","if image sizes made a difference to reaction time (bigger images meant you react faster?)","no","stimuli/31-Inongruent.jpg","m","","","","","right","m","true"
"","null","html-keyboard-response","386","2.0.0","347839","p9gaua7n50t","bigger","A1","if image sizes made a difference to reaction time (bigger images meant you react faster?)","no","<p>Correct!</p>","null","","","","","","",""
"","null","html-keyboard-response","387","2.0.0","348847","p9gaua7n50t","bigger","A1","if image sizes made a difference to reaction time (bigger images meant you react faster?)","no","<div style=""font-size:60px;"">+</div>","null","","","","","","",""
"","439","image-keyboard-response","388","2.0.0","349293","p9gaua7n50t","bigger","A1","if image sizes made a difference to reaction time (bigger images meant you react faster?)","no","stimuli/14-Inongruent.jpg","m","","","","","right","m","true"
"","null","html-keyboard-response","389","2.0.0","350196","p9gaua7n50t","bigger","A1","if image sizes made a difference to reaction time (bigger images meant you react faster?)","no","<p>Correct!</p>","null","","","","","","",""
"","null","html-keyboard-response","390","2.0.0","351205","p9gaua7n50t","bigger","A1","if image sizes made a difference to reaction time (bigger images meant you react faster?)","no","<div style=""font-size:60px;"">+</div>","null","","","","","","",""
"","491","image-keyboard-response","391","2.0.0","351696","p9gaua7n50t","bigger","A1","if image sizes made a difference to reaction time (bigger images meant you react faster?)","no","stimuli/18-Congruent.jpg","z","","","","","left","z","true"
"","null","html-keyboard-response","392","2.0.0","352704","p9gaua7n50t","bigger","A1","if image sizes made a difference to reaction time (bigger images meant you react faster?)","no","<p>Correct!</p>","null","","","","","","",""
"","null","html-keyboard-response","393","2.0.0","353712","p9gaua7n50t","bigger","A1","if image sizes made a difference to reaction time (bigger images meant you react faster?)","no","<div style=""font-size:60px;"">+</div>","null","","","","","","",""
"","544","image-keyboard-response","394","2.0.0","354261","p9gaua7n50t","bigger","A1","if image sizes made a difference to reaction time (bigger images meant you react faster?)","no","stimuli/10-Inongruent.jpg","m","","","","","right","m","true"
"","null","html-keyboard-response","395","2.0.0","355168","p9gaua7n50t","bigger","A1","if image sizes made a difference to reaction time (bigger images meant you react faster?)","no","<p>Correct!</p>","null","","","","","","",""
"","null","html-keyboard-response","396","2.0.0","356219","p9gaua7n50t","bigger","A1","if image sizes made a difference to reaction time (bigger images meant you react faster?)","no","<div style=""font-size:60px;"">+</div>","null","","","","","","",""
"","522","image-keyboard-response","397","2.0.0","356743","p9gaua7n50t","bigger","A1","if image sizes made a difference to reaction time (bigger images meant you react faster?)","no","stimuli/26-Inongruent.jpg","m","","","","","right","m","true"
"","null","html-keyboard-response","398","2.0.0","357739","p9gaua7n50t","bigger","A1","if image sizes made a difference to reaction time (bigger images meant you react faster?)","no","<p>Correct!</p>","null","","","","","","",""
"","null","html-keyboard-response","399","2.0.0","358747","p9gaua7n50t","bigger","A1","if image sizes made a difference to reaction time (bigger images meant you react faster?)","no","<div style=""font-size:60px;"">+</div>","null","","","","","","",""
"","435","image-keyboard-response","400","2.0.0","359185","p9gaua7n50t","bigger","A1","if image sizes made a difference to reaction time (bigger images meant you react faster?)","no","stimuli/5-Congruent.jpg","z","","","","","left","z","true"
"","null","html-keyboard-response","401","2.0.0","360089","p9gaua7n50t","bigger","A1","if image sizes made a difference to reaction time (bigger images meant you react faster?)","no","<p>Correct!</p>","null","","","","","","",""
"","null","html-keyboard-response","402","2.0.0","361098","p9gaua7n50t","bigger","A1","if image sizes made a difference to reaction time (bigger images meant you react faster?)","no","<div style=""font-size:60px;"">+</div>","null","","","","","","",""
"","575","image-keyboard-response","403","2.0.0","361679","p9gaua7n50t","bigger","A1","if image sizes made a difference to reaction time (bigger images meant you react faster?)","no","stimuli/23-Congruent.jpg","z","","","","","left","z","true"
"","null","html-keyboard-response","404","2.0.0","362583","p9gaua7n50t","bigger","A1","if image sizes made a difference to reaction time (bigger images meant you react faster?)","no","<p>Correct!</p>","null","","","","","","",""
"","null","html-keyboard-response","405","2.0.0","363586","p9gaua7n50t","bigger","A1","if image sizes made a difference to reaction time (bigger images meant you react faster?)","no","<div style=""font-size:60px;"">+</div>","null","","","","","","",""
"","403","image-keyboard-response","406","2.0.0","363995","p9gaua7n50t","bigger","A1","if image sizes made a difference to reaction time (bigger images meant you react faster?)","no","stimuli/11-Inongruent.jpg","m","","","","","right","m","true"
"","null","html-keyboard-response","407","2.0.0","364901","p9gaua7n50t","bigger","A1","if image sizes made a difference to reaction time (bigger images meant you react faster?)","no","<p>Correct!</p>","null","","","","","","",""
"","null","html-keyboard-response","408","2.0.0","365906","p9gaua7n50t","bigger","A1","if image sizes made a difference to reaction time (bigger images meant you react faster?)","no","<div style=""font-size:60px;"">+</div>","null","","","","","","",""
