"success","rt","trial_type","trial_index","plugin_version","time_elapsed","random_id","condition","participant","participant_thoughts","participant_difficulties","stimulus","response","timeout","failed_images","failed_audio","failed_video","correct_response","correct_response_key","correct"
"true","2244","fullscreen","0","null","3250","pb28mlq07mx","smaller","otter","I think the purpose of this experiment was to see if we could get the smaller image even if the subject was objectively bigger in our minds.","No","","","","","","","","",""
"","2123","html-keyboard-response","1","2.0.0","5375","pb28mlq07mx","smaller","otter","I think the purpose of this experiment was to see if we could get the smaller image even if the subject was objectively bigger in our minds.","No","Welcome to the Size Stroop experiment. Press any key to begin.","m","","","","","","",""
"","null","html-keyboard-response","2","2.0.0","6379","pb28mlq07mx","smaller","otter","I think the purpose of this experiment was to see if we could get the smaller image even if the subject was objectively bigger in our minds.","No","This trial will be in fullscreen mode.","null","","","","","","",""
"","3864","survey-text","3","2.0.0","10262","pb28mlq07mx","smaller","otter","I think the purpose of this experiment was to see if we could get the smaller image even if the subject was objectively bigger in our minds.","No","","{""participant_id"":""otter""}","","","","","","",""
"","10093","html-keyboard-response","4","2.0.0","20356","pb28mlq07mx","smaller","otter","I think the purpose of this experiment was to see if we could get the smaller image even if the subject was objectively bigger in our minds.","No","<p>In this experiment, two images will appear on the screen. Identify the <strong>smaller</strong> image.</p>
              <p>If the image on the left is smaller, press ""z"". If the image on the right is smaller, press ""m"".</p>
              <p>Press any key to begin.</p>","z","","","","","","",""
"true","","preload","5","2.0.0","21002","pb28mlq07mx","smaller","otter","I think the purpose of this experiment was to see if we could get the smaller image even if the subject was objectively bigger in our minds.","No","","","false","[]","[]","[]","","",""
"","null","html-keyboard-response","6","2.0.0","22005","pb28mlq07mx","smaller","otter","I think the purpose of this experiment was to see if we could get the smaller image even if the subject was objectively bigger in our minds.","No","<div style=""font-size:60px;"">+</div>","null","","","","","","",""
"","2362","image-keyboard-response","7","2.0.0","24380","pb28mlq07mx","smaller","otter","I think the purpose of this experiment was to see if we could get the smaller image even if the subject was objectively bigger in our minds.","No","stimuli/36-Congruent.jpg","m","","","","","right","m","true"
"","null","html-keyboard-response","8","2.0.0","25284","pb28mlq07mx","smaller","otter","I think the purpose of this experiment was to see if we could get the smaller image even if the subject was objectively bigger in our minds.","No","<p>Correct!</p>","null","","","","","","",""
"","null","html-keyboard-response","9","2.0.0","26288","pb28mlq07mx","smaller","otter","I think the purpose of this experiment was to see if we could get the smaller image even if the subject was objectively bigger in our minds.","No","<div style=""font-size:60px;"">+</div>","null","","","","","","",""
"","1444","image-keyboard-response","10","2.0.0","27743","pb28mlq07mx","smaller","otter","I think the purpose of this experiment was to see if we could get the smaller image even if the subject was objectively bigger in our minds.","No","stimuli/35-Congruent.jpg","z","","","","","right","m","false"
"","null","html-keyboard-response","11","2.0.0","32747","pb28mlq07mx","smaller","otter","I think the purpose of this experiment was to see if we could get the smaller image even if the subject was objectively bigger in our minds.","No","<p>Incorrect.</p><p>Remember to select the <b>smaller</b> image.</p><p>Continuing in 5 seconds...</p>","null","","","","","","",""
"","null","html-keyboard-response","12","2.0.0","33750","pb28mlq07mx","smaller","otter","I think the purpose of this experiment was to see if we could get the smaller image even if the subject was objectively bigger in our minds.","No","<div style=""font-size:60px;"">+</div>","null","","","","","","",""
"","1410","image-keyboard-response","13","2.0.0","35171","pb28mlq07mx","smaller","otter","I think the purpose of this experiment was to see if we could get the smaller image even if the subject was objectively bigger in our minds.","No","stimuli/16-Congruent.jpg","m","","","","","right","m","true"
"","null","html-keyboard-response","14","2.0.0","36074","pb28mlq07mx","smaller","otter","I think the purpose of this experiment was to see if we could get the smaller image even if the subject was objectively bigger in our minds.","No","<p>Correct!</p>","null","","","","","","",""
"","null","html-keyboard-response","15","2.0.0","37078","pb28mlq07mx","smaller","otter","I think the purpose of this experiment was to see if we could get the smaller image even if the subject was objectively bigger in our minds.","No","<div style=""font-size:60px;"">+</div>","null","","","","","","",""
"","768","image-keyboard-response","16","2.0.0","37856","pb28mlq07mx","smaller","otter","I think the purpose of this experiment was to see if we could get the smaller image even if the subject was objectively bigger in our minds.","No","stimuli/23-Inongruent.jpg","z","","","","","left","z","true"
"","null","html-keyboard-response","17","2.0.0","38758","pb28mlq07mx","smaller","otter","I think the purpose of this experiment was to see if we could get the smaller image even if the subject was objectively bigger in our minds.","No","<p>Correct!</p>","null","","","","","","",""
"","null","html-keyboard-response","18","2.0.0","39760","pb28mlq07mx","smaller","otter","I think the purpose of this experiment was to see if we could get the smaller image even if the subject was objectively bigger in our minds.","No","<div style=""font-size:60px;"">+</div>","null","","","","","","",""
"","1985","image-keyboard-response","19","2.0.0","41756","pb28mlq07mx","smaller","otter","I think the purpose of this experiment was to see if we could get the smaller image even if the subject was objectively bigger in our minds.","No","stimuli/13-Congruent.jpg","m","","","","","right","m","true"
"","null","html-keyboard-response","20","2.0.0","42659","pb28mlq07mx","smaller","otter","I think the purpose of this experiment was to see if we could get the smaller image even if the subject was objectively bigger in our minds.","No","<p>Correct!</p>","null","","","","","","",""
"","null","html-keyboard-response","21","2.0.0","43662","pb28mlq07mx","smaller","otter","I think the purpose of this experiment was to see if we could get the smaller image even if the subject was objectively bigger in our minds.","No","<div style=""font-size:60px;"">+</div>","null","","","","","","",""
"","1253","image-keyboard-response","22","2.0.0","44926","pb28mlq07mx","smaller","otter","I think the purpose of this experiment was to see if we could get the smaller image even if the subject was objectively bigger in our minds.","No","stimuli/10-Inongruent.jpg","z","","","","","left","z","true"
"","null","html-keyboard-response","23","2.0.0","45829","pb28mlq07mx","smaller","otter","I think the purpose of this experiment was to see if we could get the smaller image even if the subject was objectively bigger in our minds.","No","<p>Correct!</p>","null","","","","","","",""
"","null","html-keyboard-response","24","2.0.0","46831","pb28mlq07mx","smaller","otter","I think the purpose of this experiment was to see if we could get the smaller image even if the subject was objectively bigger in our minds.","No","<div style=""font-size:60px;"">+</div>","null","","","","","","",""
"","792","image-keyboard-response","25","2.0.0","47634","pb28mlq07mx","smaller","otter","I think the purpose of this experiment was to see if we could get the smaller image even if the subject was objectively bigger in our minds.","No","stimuli/28-Congruent.jpg","m","","","","","right","m","true"
"","null","html-keyboard-response","26","2.0.0","48537","pb28mlq07mx","smaller","otter","I think the purpose of this experiment was to see if we could get the smaller image even if the subject was objectively bigger in our minds.","No","<p>Correct!</p>","null","","","","","","",""
"","null","html-keyboard-response","27","2.0.0","49540","pb28mlq07mx","smaller","otter","I think the purpose of this experiment was to see if we could get the smaller image even if the subject was objectively bigger in our minds.","No","<div style=""font-size:60px;"">+</div>","null","","","","","","",""
"","1071","image-keyboard-response","28","2.0.0","50620","pb28mlq07mx","smaller","otter","I think the purpose of this experiment was to see if we could get the smaller image even if the subject was objectively bigger in our minds.","No","stimuli/15-Inongruent.jpg","z","","","","","left","z","true"
"","null","html-keyboard-response","29","2.0.0","51524","pb28mlq07mx","smaller","otter","I think the purpose of this experiment was to see if we could get the smaller image even if the subject was objectively bigger in our minds.","No","<p>Correct!</p>","null","","","","","","",""
"","null","html-keyboard-response","30","2.0.0","52527","pb28mlq07mx","smaller","otter","I think the purpose of this experiment was to see if we could get the smaller image even if the subject was objectively bigger in our minds.","No","<div style=""font-size:60px;"">+</div>","null","","","","","","",""
"","703","image-keyboard-response","31","2.0.0","53239","pb28mlq07mx","smaller","otter","I think the purpose of this experiment was to see if we could get the smaller image even if the subject was objectively bigger in our minds.","No","stimuli/2-Congruent.jpg","m","","","","","right","m","true"
"","null","html-keyboard-response","32","2.0.0","54142","pb28mlq07mx","smaller","otter","I think the purpose of this experiment was to see if we could get the smaller image even if the subject was objectively bigger in our minds.","No","<p>Correct!</p>","null","","","","","","",""
"","null","html-keyboard-response","33","2.0.0","55146","pb28mlq07mx","smaller","otter","I think the purpose of this experiment was to see if we could get the smaller image even if the subject was objectively bigger in our minds.","No","<div style=""font-size:60px;"">+</div>","null","","","","","","",""
"","651","image-keyboard-response","34","2.0.0","55807","pb28mlq07mx","smaller","otter","I think the purpose of this experiment was to see if we could get the smaller image even if the subject was objectively bigger in our minds.","No","stimuli/8-Inongruent.jpg","z","","","","","left","z","true"
"","null","html-keyboard-response","35","2.0.0","56709","pb28mlq07mx","smaller","otter","I think the purpose of this experiment was to see if we could get the smaller image even if the subject was objectively bigger in our minds.","No","<p>Correct!</p>","null","","","","","","",""
"","null","html-keyboard-response","36","2.0.0","57712","pb28mlq07mx","smaller","otter","I think the purpose of this experiment was to see if we could get the smaller image even if the subject was objectively bigger in our minds.","No","<div style=""font-size:60px;"">+</div>","null","","","","","","",""
"","874","image-keyboard-response","37","2.0.0","58596","pb28mlq07mx","smaller","otter","I think the purpose of this experiment was to see if we could get the smaller image even if the subject was objectively bigger in our minds.","No","stimuli/29-Inongruent.jpg","z","","","","","left","z","true"
"","null","html-keyboard-response","38","2.0.0","59499","pb28mlq07mx","smaller","otter","I think the purpose of this experiment was to see if we could get the smaller image even if the subject was objectively bigger in our minds.","No","<p>Correct!</p>","null","","","","","","",""
"","null","html-keyboard-response","39","2.0.0","60501","pb28mlq07mx","smaller","otter","I think the purpose of this experiment was to see if we could get the smaller image even if the subject was objectively bigger in our minds.","No","<div style=""font-size:60px;"">+</div>","null","","","","","","",""
"","536","image-keyboard-response","40","2.0.0","61047","pb28mlq07mx","smaller","otter","I think the purpose of this experiment was to see if we could get the smaller image even if the subject was objectively bigger in our minds.","No","stimuli/34-Congruent.jpg","m","","","","","right","m","true"
"","206","html-keyboard-response","41","2.0.0","61255","pb28mlq07mx","smaller","otter","I think the purpose of this experiment was to see if we could get the smaller image even if the subject was objectively bigger in our minds.","No","<p>Correct!</p>","m","","","","","","",""
"","null","html-keyboard-response","42","2.0.0","62259","pb28mlq07mx","smaller","otter","I think the purpose of this experiment was to see if we could get the smaller image even if the subject was objectively bigger in our minds.","No","<div style=""font-size:60px;"">+</div>","null","","","","","","",""
"","663","image-keyboard-response","43","2.0.0","62932","pb28mlq07mx","smaller","otter","I think the purpose of this experiment was to see if we could get the smaller image even if the subject was objectively bigger in our minds.","No","stimuli/5-Congruent.jpg","m","","","","","right","m","true"
"","null","html-keyboard-response","44","2.0.0","63835","pb28mlq07mx","smaller","otter","I think the purpose of this experiment was to see if we could get the smaller image even if the subject was objectively bigger in our minds.","No","<p>Correct!</p>","null","","","","","","",""
"","null","html-keyboard-response","45","2.0.0","64838","pb28mlq07mx","smaller","otter","I think the purpose of this experiment was to see if we could get the smaller image even if the subject was objectively bigger in our minds.","No","<div style=""font-size:60px;"">+</div>","null","","","","","","",""
"","836","image-keyboard-response","46","2.0.0","65684","pb28mlq07mx","smaller","otter","I think the purpose of this experiment was to see if we could get the smaller image even if the subject was objectively bigger in our minds.","No","stimuli/17-Congruent.jpg","m","","","","","right","m","true"
"","null","html-keyboard-response","47","2.0.0","66586","pb28mlq07mx","smaller","otter","I think the purpose of this experiment was to see if we could get the smaller image even if the subject was objectively bigger in our minds.","No","<p>Correct!</p>","null","","","","","","",""
"","null","html-keyboard-response","48","2.0.0","67588","pb28mlq07mx","smaller","otter","I think the purpose of this experiment was to see if we could get the smaller image even if the subject was objectively bigger in our minds.","No","<div style=""font-size:60px;"">+</div>","null","","","","","","",""
"","655","image-keyboard-response","49","2.0.0","68256","pb28mlq07mx","smaller","otter","I think the purpose of this experiment was to see if we could get the smaller image even if the subject was objectively bigger in our minds.","No","stimuli/1-Inongruent.jpg","z","","","","","left","z","true"
"","null","html-keyboard-response","50","2.0.0","69158","pb28mlq07mx","smaller","otter","I think the purpose of this experiment was to see if we could get the smaller image even if the subject was objectively bigger in our minds.","No","<p>Correct!</p>","null","","","","","","",""
"","null","html-keyboard-response","51","2.0.0","70161","pb28mlq07mx","smaller","otter","I think the purpose of this experiment was to see if we could get the smaller image even if the subject was objectively bigger in our minds.","No","<div style=""font-size:60px;"">+</div>","null","","","","","","",""
"","1204","image-keyboard-response","52","2.0.0","71368","pb28mlq07mx","smaller","otter","I think the purpose of this experiment was to see if we could get the smaller image even if the subject was objectively bigger in our minds.","No","stimuli/10-Inongruent.jpg","z","","","","","left","z","true"
"","null","html-keyboard-response","53","2.0.0","72271","pb28mlq07mx","smaller","otter","I think the purpose of this experiment was to see if we could get the smaller image even if the subject was objectively bigger in our minds.","No","<p>Correct!</p>","null","","","","","","",""
"","null","html-keyboard-response","54","2.0.0","73274","pb28mlq07mx","smaller","otter","I think the purpose of this experiment was to see if we could get the smaller image even if the subject was objectively bigger in our minds.","No","<div style=""font-size:60px;"">+</div>","null","","","","","","",""
"","757","image-keyboard-response","55","2.0.0","74034","pb28mlq07mx","smaller","otter","I think the purpose of this experiment was to see if we could get the smaller image even if the subject was objectively bigger in our minds.","No","stimuli/28-Congruent.jpg","m","","","","","right","m","true"
"","null","html-keyboard-response","56","2.0.0","74938","pb28mlq07mx","smaller","otter","I think the purpose of this experiment was to see if we could get the smaller image even if the subject was objectively bigger in our minds.","No","<p>Correct!</p>","null","","","","","","",""
"","null","html-keyboard-response","57","2.0.0","75940","pb28mlq07mx","smaller","otter","I think the purpose of this experiment was to see if we could get the smaller image even if the subject was objectively bigger in our minds.","No","<div style=""font-size:60px;"">+</div>","null","","","","","","",""
"","1013","image-keyboard-response","58","2.0.0","76964","pb28mlq07mx","smaller","otter","I think the purpose of this experiment was to see if we could get the smaller image even if the subject was objectively bigger in our minds.","No","stimuli/24-Inongruent.jpg","z","","","","","left","z","true"
"","null","html-keyboard-response","59","2.0.0","77866","pb28mlq07mx","smaller","otter","I think the purpose of this experiment was to see if we could get the smaller image even if the subject was objectively bigger in our minds.","No","<p>Correct!</p>","null","","","","","","",""
"","null","html-keyboard-response","60","2.0.0","78869","pb28mlq07mx","smaller","otter","I think the purpose of this experiment was to see if we could get the smaller image even if the subject was objectively bigger in our minds.","No","<div style=""font-size:60px;"">+</div>","null","","","","","","",""
"","613","image-keyboard-response","61","2.0.0","79492","pb28mlq07mx","smaller","otter","I think the purpose of this experiment was to see if we could get the smaller image even if the subject was objectively bigger in our minds.","No","stimuli/18-Congruent.jpg","m","","","","","right","m","true"
"","null","html-keyboard-response","62","2.0.0","80394","pb28mlq07mx","smaller","otter","I think the purpose of this experiment was to see if we could get the smaller image even if the subject was objectively bigger in our minds.","No","<p>Correct!</p>","null","","","","","","",""
"","null","html-keyboard-response","63","2.0.0","81397","pb28mlq07mx","smaller","otter","I think the purpose of this experiment was to see if we could get the smaller image even if the subject was objectively bigger in our minds.","No","<div style=""font-size:60px;"">+</div>","null","","","","","","",""
"","1105","image-keyboard-response","64","2.0.0","82513","pb28mlq07mx","smaller","otter","I think the purpose of this experiment was to see if we could get the smaller image even if the subject was objectively bigger in our minds.","No","stimuli/36-Inongruent.jpg","z","","","","","left","z","true"
"","null","html-keyboard-response","65","2.0.0","83416","pb28mlq07mx","smaller","otter","I think the purpose of this experiment was to see if we could get the smaller image even if the subject was objectively bigger in our minds.","No","<p>Correct!</p>","null","","","","","","",""
"","null","html-keyboard-response","66","2.0.0","84420","pb28mlq07mx","smaller","otter","I think the purpose of this experiment was to see if we could get the smaller image even if the subject was objectively bigger in our minds.","No","<div style=""font-size:60px;"">+</div>","null","","","","","","",""
"","943","image-keyboard-response","67","2.0.0","85373","pb28mlq07mx","smaller","otter","I think the purpose of this experiment was to see if we could get the smaller image even if the subject was objectively bigger in our minds.","No","stimuli/27-Inongruent.jpg","z","","","","","left","z","true"
"","null","html-keyboard-response","68","2.0.0","86276","pb28mlq07mx","smaller","otter","I think the purpose of this experiment was to see if we could get the smaller image even if the subject was objectively bigger in our minds.","No","<p>Correct!</p>","null","","","","","","",""
"","null","html-keyboard-response","69","2.0.0","87279","pb28mlq07mx","smaller","otter","I think the purpose of this experiment was to see if we could get the smaller image even if the subject was objectively bigger in our minds.","No","<div style=""font-size:60px;"">+</div>","null","","","","","","",""
"","557","image-keyboard-response","70","2.0.0","87846","pb28mlq07mx","smaller","otter","I think the purpose of this experiment was to see if we could get the smaller image even if the subject was objectively bigger in our minds.","No","stimuli/26-Congruent.jpg","m","","","","","right","m","true"
"","null","html-keyboard-response","71","2.0.0","88749","pb28mlq07mx","smaller","otter","I think the purpose of this experiment was to see if we could get the smaller image even if the subject was objectively bigger in our minds.","No","<p>Correct!</p>","null","","","","","","",""
"","null","html-keyboard-response","72","2.0.0","89752","pb28mlq07mx","smaller","otter","I think the purpose of this experiment was to see if we could get the smaller image even if the subject was objectively bigger in our minds.","No","<div style=""font-size:60px;"">+</div>","null","","","","","","",""
"","812","image-keyboard-response","73","2.0.0","90574","pb28mlq07mx","smaller","otter","I think the purpose of this experiment was to see if we could get the smaller image even if the subject was objectively bigger in our minds.","No","stimuli/8-Congruent.jpg","m","","","","","right","m","true"
"","null","html-keyboard-response","74","2.0.0","91477","pb28mlq07mx","smaller","otter","I think the purpose of this experiment was to see if we could get the smaller image even if the subject was objectively bigger in our minds.","No","<p>Correct!</p>","null","","","","","","",""
"","null","html-keyboard-response","75","2.0.0","92479","pb28mlq07mx","smaller","otter","I think the purpose of this experiment was to see if we could get the smaller image even if the subject was objectively bigger in our minds.","No","<div style=""font-size:60px;"">+</div>","null","","","","","","",""
"","776","image-keyboard-response","76","2.0.0","93267","pb28mlq07mx","smaller","otter","I think the purpose of this experiment was to see if we could get the smaller image even if the subject was objectively bigger in our minds.","No","stimuli/19-Inongruent.jpg","z","","","","","left","z","true"
"","null","html-keyboard-response","77","2.0.0","94170","pb28mlq07mx","smaller","otter","I think the purpose of this experiment was to see if we could get the smaller image even if the subject was objectively bigger in our minds.","No","<p>Correct!</p>","null","","","","","","",""
"","null","html-keyboard-response","78","2.0.0","95173","pb28mlq07mx","smaller","otter","I think the purpose of this experiment was to see if we could get the smaller image even if the subject was objectively bigger in our minds.","No","<div style=""font-size:60px;"">+</div>","null","","","","","","",""
"","886","image-keyboard-response","79","2.0.0","96070","pb28mlq07mx","smaller","otter","I think the purpose of this experiment was to see if we could get the smaller image even if the subject was objectively bigger in our minds.","No","stimuli/27-Congruent.jpg","m","","","","","right","m","true"
"","null","html-keyboard-response","80","2.0.0","96973","pb28mlq07mx","smaller","otter","I think the purpose of this experiment was to see if we could get the smaller image even if the subject was objectively bigger in our minds.","No","<p>Correct!</p>","null","","","","","","",""
"","null","html-keyboard-response","81","2.0.0","97976","pb28mlq07mx","smaller","otter","I think the purpose of this experiment was to see if we could get the smaller image even if the subject was objectively bigger in our minds.","No","<div style=""font-size:60px;"">+</div>","null","","","","","","",""
"","740","image-keyboard-response","82","2.0.0","98727","pb28mlq07mx","smaller","otter","I think the purpose of this experiment was to see if we could get the smaller image even if the subject was objectively bigger in our minds.","No","stimuli/20-Inongruent.jpg","z","","","","","left","z","true"
"","null","html-keyboard-response","83","2.0.0","99630","pb28mlq07mx","smaller","otter","I think the purpose of this experiment was to see if we could get the smaller image even if the subject was objectively bigger in our minds.","No","<p>Correct!</p>","null","","","","","","",""
"","null","html-keyboard-response","84","2.0.0","100633","pb28mlq07mx","smaller","otter","I think the purpose of this experiment was to see if we could get the smaller image even if the subject was objectively bigger in our minds.","No","<div style=""font-size:60px;"">+</div>","null","","","","","","",""
"","1048","image-keyboard-response","85","2.0.0","101693","pb28mlq07mx","smaller","otter","I think the purpose of this experiment was to see if we could get the smaller image even if the subject was objectively bigger in our minds.","No","stimuli/7-Inongruent.jpg","z","","","","","left","z","true"
"","null","html-keyboard-response","86","2.0.0","102596","pb28mlq07mx","smaller","otter","I think the purpose of this experiment was to see if we could get the smaller image even if the subject was objectively bigger in our minds.","No","<p>Correct!</p>","null","","","","","","",""
"","null","html-keyboard-response","87","2.0.0","103599","pb28mlq07mx","smaller","otter","I think the purpose of this experiment was to see if we could get the smaller image even if the subject was objectively bigger in our minds.","No","<div style=""font-size:60px;"">+</div>","null","","","","","","",""
"","859","image-keyboard-response","88","2.0.0","104469","pb28mlq07mx","smaller","otter","I think the purpose of this experiment was to see if we could get the smaller image even if the subject was objectively bigger in our minds.","No","stimuli/25-Inongruent.jpg","z","","","","","left","z","true"
"","null","html-keyboard-response","89","2.0.0","105371","pb28mlq07mx","smaller","otter","I think the purpose of this experiment was to see if we could get the smaller image even if the subject was objectively bigger in our minds.","No","<p>Correct!</p>","null","","","","","","",""
"","null","html-keyboard-response","90","2.0.0","106374","pb28mlq07mx","smaller","otter","I think the purpose of this experiment was to see if we could get the smaller image even if the subject was objectively bigger in our minds.","No","<div style=""font-size:60px;"">+</div>","null","","","","","","",""
"","588","image-keyboard-response","91","2.0.0","106972","pb28mlq07mx","smaller","otter","I think the purpose of this experiment was to see if we could get the smaller image even if the subject was objectively bigger in our minds.","No","stimuli/9-Congruent.jpg","m","","","","","right","m","true"
"","null","html-keyboard-response","92","2.0.0","107875","pb28mlq07mx","smaller","otter","I think the purpose of this experiment was to see if we could get the smaller image even if the subject was objectively bigger in our minds.","No","<p>Correct!</p>","null","","","","","","",""
"","null","html-keyboard-response","93","2.0.0","108878","pb28mlq07mx","smaller","otter","I think the purpose of this experiment was to see if we could get the smaller image even if the subject was objectively bigger in our minds.","No","<div style=""font-size:60px;"">+</div>","null","","","","","","",""
"","919","image-keyboard-response","94","2.0.0","109816","pb28mlq07mx","smaller","otter","I think the purpose of this experiment was to see if we could get the smaller image even if the subject was objectively bigger in our minds.","No","stimuli/28-Inongruent.jpg","z","","","","","left","z","true"
"","null","html-keyboard-response","95","2.0.0","110720","pb28mlq07mx","smaller","otter","I think the purpose of this experiment was to see if we could get the smaller image even if the subject was objectively bigger in our minds.","No","<p>Correct!</p>","null","","","","","","",""
"","null","html-keyboard-response","96","2.0.0","111731","pb28mlq07mx","smaller","otter","I think the purpose of this experiment was to see if we could get the smaller image even if the subject was objectively bigger in our minds.","No","<div style=""font-size:60px;"">+</div>","null","","","","","","",""
"","632","image-keyboard-response","97","2.0.0","112365","pb28mlq07mx","smaller","otter","I think the purpose of this experiment was to see if we could get the smaller image even if the subject was objectively bigger in our minds.","No","stimuli/35-Congruent.jpg","m","","","","","right","m","true"
"","null","html-keyboard-response","98","2.0.0","113268","pb28mlq07mx","smaller","otter","I think the purpose of this experiment was to see if we could get the smaller image even if the subject was objectively bigger in our minds.","No","<p>Correct!</p>","null","","","","","","",""
"","null","html-keyboard-response","99","2.0.0","114271","pb28mlq07mx","smaller","otter","I think the purpose of this experiment was to see if we could get the smaller image even if the subject was objectively bigger in our minds.","No","<div style=""font-size:60px;"">+</div>","null","","","","","","",""
"","880","image-keyboard-response","100","2.0.0","115162","pb28mlq07mx","smaller","otter","I think the purpose of this experiment was to see if we could get the smaller image even if the subject was objectively bigger in our minds.","No","stimuli/19-Congruent.jpg","m","","","","","right","m","true"
"","null","html-keyboard-response","101","2.0.0","116064","pb28mlq07mx","smaller","otter","I think the purpose of this experiment was to see if we could get the smaller image even if the subject was objectively bigger in our minds.","No","<p>Correct!</p>","null","","","","","","",""
"","null","html-keyboard-response","102","2.0.0","117067","pb28mlq07mx","smaller","otter","I think the purpose of this experiment was to see if we could get the smaller image even if the subject was objectively bigger in our minds.","No","<div style=""font-size:60px;"">+</div>","null","","","","","","",""
"","722","image-keyboard-response","103","2.0.0","117799","pb28mlq07mx","smaller","otter","I think the purpose of this experiment was to see if we could get the smaller image even if the subject was objectively bigger in our minds.","No","stimuli/26-Inongruent.jpg","z","","","","","left","z","true"
"","null","html-keyboard-response","104","2.0.0","118702","pb28mlq07mx","smaller","otter","I think the purpose of this experiment was to see if we could get the smaller image even if the subject was objectively bigger in our minds.","No","<p>Correct!</p>","null","","","","","","",""
"","null","html-keyboard-response","105","2.0.0","119705","pb28mlq07mx","smaller","otter","I think the purpose of this experiment was to see if we could get the smaller image even if the subject was objectively bigger in our minds.","No","<div style=""font-size:60px;"">+</div>","null","","","","","","",""
"","706","image-keyboard-response","106","2.0.0","120422","pb28mlq07mx","smaller","otter","I think the purpose of this experiment was to see if we could get the smaller image even if the subject was objectively bigger in our minds.","No","stimuli/6-Congruent.jpg","m","","","","","right","m","true"
"","null","html-keyboard-response","107","2.0.0","121325","pb28mlq07mx","smaller","otter","I think the purpose of this experiment was to see if we could get the smaller image even if the subject was objectively bigger in our minds.","No","<p>Correct!</p>","null","","","","","","",""
"","null","html-keyboard-response","108","2.0.0","122342","pb28mlq07mx","smaller","otter","I think the purpose of this experiment was to see if we could get the smaller image even if the subject was objectively bigger in our minds.","No","<div style=""font-size:60px;"">+</div>","null","","","","","","",""
"","535","image-keyboard-response","109","2.0.0","122886","pb28mlq07mx","smaller","otter","I think the purpose of this experiment was to see if we could get the smaller image even if the subject was objectively bigger in our minds.","No","stimuli/12-Congruent.jpg","z","","","","","right","m","false"
"","null","html-keyboard-response","110","2.0.0","127888","pb28mlq07mx","smaller","otter","I think the purpose of this experiment was to see if we could get the smaller image even if the subject was objectively bigger in our minds.","No","<p>Incorrect.</p><p>Remember to select the <b>smaller</b> image.</p><p>Continuing in 5 seconds...</p>","null","","","","","","",""
"","null","html-keyboard-response","111","2.0.0","128890","pb28mlq07mx","smaller","otter","I think the purpose of this experiment was to see if we could get the smaller image even if the subject was objectively bigger in our minds.","No","<div style=""font-size:60px;"">+</div>","null","","","","","","",""
"","1178","image-keyboard-response","112","2.0.0","130080","pb28mlq07mx","smaller","otter","I think the purpose of this experiment was to see if we could get the smaller image even if the subject was objectively bigger in our minds.","No","stimuli/17-Congruent.jpg","m","","","","","right","m","true"
"","null","html-keyboard-response","113","2.0.0","130984","pb28mlq07mx","smaller","otter","I think the purpose of this experiment was to see if we could get the smaller image even if the subject was objectively bigger in our minds.","No","<p>Correct!</p>","null","","","","","","",""
"","null","html-keyboard-response","114","2.0.0","131987","pb28mlq07mx","smaller","otter","I think the purpose of this experiment was to see if we could get the smaller image even if the subject was objectively bigger in our minds.","No","<div style=""font-size:60px;"">+</div>","null","","","","","","",""
"","978","image-keyboard-response","115","2.0.0","132975","pb28mlq07mx","smaller","otter","I think the purpose of this experiment was to see if we could get the smaller image even if the subject was objectively bigger in our minds.","No","stimuli/32-Inongruent.jpg","z","","","","","left","z","true"
"","null","html-keyboard-response","116","2.0.0","133878","pb28mlq07mx","smaller","otter","I think the purpose of this experiment was to see if we could get the smaller image even if the subject was objectively bigger in our minds.","No","<p>Correct!</p>","null","","","","","","",""
"","null","html-keyboard-response","117","2.0.0","134881","pb28mlq07mx","smaller","otter","I think the purpose of this experiment was to see if we could get the smaller image even if the subject was objectively bigger in our minds.","No","<div style=""font-size:60px;"">+</div>","null","","","","","","",""
"","1203","image-keyboard-response","118","2.0.0","136094","pb28mlq07mx","smaller","otter","I think the purpose of this experiment was to see if we could get the smaller image even if the subject was objectively bigger in our minds.","No","stimuli/33-Inongruent.jpg","z","","","","","left","z","true"
"","null","html-keyboard-response","119","2.0.0","136997","pb28mlq07mx","smaller","otter","I think the purpose of this experiment was to see if we could get the smaller image even if the subject was objectively bigger in our minds.","No","<p>Correct!</p>","null","","","","","","",""
"","null","html-keyboard-response","120","2.0.0","138000","pb28mlq07mx","smaller","otter","I think the purpose of this experiment was to see if we could get the smaller image even if the subject was objectively bigger in our minds.","No","<div style=""font-size:60px;"">+</div>","null","","","","","","",""
"","699","image-keyboard-response","121","2.0.0","138708","pb28mlq07mx","smaller","otter","I think the purpose of this experiment was to see if we could get the smaller image even if the subject was objectively bigger in our minds.","No","stimuli/31-Congruent.jpg","m","","","","","right","m","true"
"","null","html-keyboard-response","122","2.0.0","139610","pb28mlq07mx","smaller","otter","I think the purpose of this experiment was to see if we could get the smaller image even if the subject was objectively bigger in our minds.","No","<p>Correct!</p>","null","","","","","","",""
"","null","html-keyboard-response","123","2.0.0","140613","pb28mlq07mx","smaller","otter","I think the purpose of this experiment was to see if we could get the smaller image even if the subject was objectively bigger in our minds.","No","<div style=""font-size:60px;"">+</div>","null","","","","","","",""
"","956","image-keyboard-response","124","2.0.0","141571","pb28mlq07mx","smaller","otter","I think the purpose of this experiment was to see if we could get the smaller image even if the subject was objectively bigger in our minds.","No","stimuli/32-Inongruent.jpg","z","","","","","left","z","true"
"","null","html-keyboard-response","125","2.0.0","142473","pb28mlq07mx","smaller","otter","I think the purpose of this experiment was to see if we could get the smaller image even if the subject was objectively bigger in our minds.","No","<p>Correct!</p>","null","","","","","","",""
"","null","html-keyboard-response","126","2.0.0","143476","pb28mlq07mx","smaller","otter","I think the purpose of this experiment was to see if we could get the smaller image even if the subject was objectively bigger in our minds.","No","<div style=""font-size:60px;"">+</div>","null","","","","","","",""
"","1952","image-keyboard-response","127","2.0.0","145438","pb28mlq07mx","smaller","otter","I think the purpose of this experiment was to see if we could get the smaller image even if the subject was objectively bigger in our minds.","No","stimuli/20-Congruent.jpg","m","","","","","right","m","true"
"","null","html-keyboard-response","128","2.0.0","146341","pb28mlq07mx","smaller","otter","I think the purpose of this experiment was to see if we could get the smaller image even if the subject was objectively bigger in our minds.","No","<p>Correct!</p>","null","","","","","","",""
"","null","html-keyboard-response","129","2.0.0","147344","pb28mlq07mx","smaller","otter","I think the purpose of this experiment was to see if we could get the smaller image even if the subject was objectively bigger in our minds.","No","<div style=""font-size:60px;"">+</div>","null","","","","","","",""
"","687","image-keyboard-response","130","2.0.0","148042","pb28mlq07mx","smaller","otter","I think the purpose of this experiment was to see if we could get the smaller image even if the subject was objectively bigger in our minds.","No","stimuli/1-Inongruent.jpg","z","","","","","left","z","true"
"","null","html-keyboard-response","131","2.0.0","148945","pb28mlq07mx","smaller","otter","I think the purpose of this experiment was to see if we could get the smaller image even if the subject was objectively bigger in our minds.","No","<p>Correct!</p>","null","","","","","","",""
"","null","html-keyboard-response","132","2.0.0","149948","pb28mlq07mx","smaller","otter","I think the purpose of this experiment was to see if we could get the smaller image even if the subject was objectively bigger in our minds.","No","<div style=""font-size:60px;"">+</div>","null","","","","","","",""
"","932","image-keyboard-response","133","2.0.0","150891","pb28mlq07mx","smaller","otter","I think the purpose of this experiment was to see if we could get the smaller image even if the subject was objectively bigger in our minds.","No","stimuli/30-Inongruent.jpg","z","","","","","left","z","true"
"","null","html-keyboard-response","134","2.0.0","151794","pb28mlq07mx","smaller","otter","I think the purpose of this experiment was to see if we could get the smaller image even if the subject was objectively bigger in our minds.","No","<p>Correct!</p>","null","","","","","","",""
"","null","html-keyboard-response","135","2.0.0","152797","pb28mlq07mx","smaller","otter","I think the purpose of this experiment was to see if we could get the smaller image even if the subject was objectively bigger in our minds.","No","<div style=""font-size:60px;"">+</div>","null","","","","","","",""
"","699","image-keyboard-response","136","2.0.0","153506","pb28mlq07mx","smaller","otter","I think the purpose of this experiment was to see if we could get the smaller image even if the subject was objectively bigger in our minds.","No","stimuli/34-Inongruent.jpg","z","","","","","left","z","true"
"","null","html-keyboard-response","137","2.0.0","154409","pb28mlq07mx","smaller","otter","I think the purpose of this experiment was to see if we could get the smaller image even if the subject was objectively bigger in our minds.","No","<p>Correct!</p>","null","","","","","","",""
"","null","html-keyboard-response","138","2.0.0","155411","pb28mlq07mx","smaller","otter","I think the purpose of this experiment was to see if we could get the smaller image even if the subject was objectively bigger in our minds.","No","<div style=""font-size:60px;"">+</div>","null","","","","","","",""
"","684","image-keyboard-response","139","2.0.0","156097","pb28mlq07mx","smaller","otter","I think the purpose of this experiment was to see if we could get the smaller image even if the subject was objectively bigger in our minds.","No","stimuli/26-Congruent.jpg","m","","","","","right","m","true"
"","null","html-keyboard-response","140","2.0.0","157001","pb28mlq07mx","smaller","otter","I think the purpose of this experiment was to see if we could get the smaller image even if the subject was objectively bigger in our minds.","No","<p>Correct!</p>","null","","","","","","",""
"","null","html-keyboard-response","141","2.0.0","158004","pb28mlq07mx","smaller","otter","I think the purpose of this experiment was to see if we could get the smaller image even if the subject was objectively bigger in our minds.","No","<div style=""font-size:60px;"">+</div>","null","","","","","","",""
"","852","image-keyboard-response","142","2.0.0","158866","pb28mlq07mx","smaller","otter","I think the purpose of this experiment was to see if we could get the smaller image even if the subject was objectively bigger in our minds.","No","stimuli/11-Inongruent.jpg","z","","","","","left","z","true"
"","null","html-keyboard-response","143","2.0.0","159769","pb28mlq07mx","smaller","otter","I think the purpose of this experiment was to see if we could get the smaller image even if the subject was objectively bigger in our minds.","No","<p>Correct!</p>","null","","","","","","",""
"","null","html-keyboard-response","144","2.0.0","160771","pb28mlq07mx","smaller","otter","I think the purpose of this experiment was to see if we could get the smaller image even if the subject was objectively bigger in our minds.","No","<div style=""font-size:60px;"">+</div>","null","","","","","","",""
"","983","image-keyboard-response","145","2.0.0","161765","pb28mlq07mx","smaller","otter","I think the purpose of this experiment was to see if we could get the smaller image even if the subject was objectively bigger in our minds.","No","stimuli/21-Inongruent.jpg","z","","","","","left","z","true"
"","null","html-keyboard-response","146","2.0.0","162668","pb28mlq07mx","smaller","otter","I think the purpose of this experiment was to see if we could get the smaller image even if the subject was objectively bigger in our minds.","No","<p>Correct!</p>","null","","","","","","",""
"","null","html-keyboard-response","147","2.0.0","163671","pb28mlq07mx","smaller","otter","I think the purpose of this experiment was to see if we could get the smaller image even if the subject was objectively bigger in our minds.","No","<div style=""font-size:60px;"">+</div>","null","","","","","","",""
"","778","image-keyboard-response","148","2.0.0","164459","pb28mlq07mx","smaller","otter","I think the purpose of this experiment was to see if we could get the smaller image even if the subject was objectively bigger in our minds.","No","stimuli/4-Congruent.jpg","m","","","","","right","m","true"
"","null","html-keyboard-response","149","2.0.0","165362","pb28mlq07mx","smaller","otter","I think the purpose of this experiment was to see if we could get the smaller image even if the subject was objectively bigger in our minds.","No","<p>Correct!</p>","null","","","","","","",""
"","null","html-keyboard-response","150","2.0.0","166365","pb28mlq07mx","smaller","otter","I think the purpose of this experiment was to see if we could get the smaller image even if the subject was objectively bigger in our minds.","No","<div style=""font-size:60px;"">+</div>","null","","","","","","",""
"","562","image-keyboard-response","151","2.0.0","166929","pb28mlq07mx","smaller","otter","I think the purpose of this experiment was to see if we could get the smaller image even if the subject was objectively bigger in our minds.","No","stimuli/4-Congruent.jpg","m","","","","","right","m","true"
"","null","html-keyboard-response","152","2.0.0","167832","pb28mlq07mx","smaller","otter","I think the purpose of this experiment was to see if we could get the smaller image even if the subject was objectively bigger in our minds.","No","<p>Correct!</p>","null","","","","","","",""
"","null","html-keyboard-response","153","2.0.0","168835","pb28mlq07mx","smaller","otter","I think the purpose of this experiment was to see if we could get the smaller image even if the subject was objectively bigger in our minds.","No","<div style=""font-size:60px;"">+</div>","null","","","","","","",""
"","919","image-keyboard-response","154","2.0.0","169768","pb28mlq07mx","smaller","otter","I think the purpose of this experiment was to see if we could get the smaller image even if the subject was objectively bigger in our minds.","No","stimuli/7-Congruent.jpg","m","","","","","right","m","true"
"","null","html-keyboard-response","155","2.0.0","170671","pb28mlq07mx","smaller","otter","I think the purpose of this experiment was to see if we could get the smaller image even if the subject was objectively bigger in our minds.","No","<p>Correct!</p>","null","","","","","","",""
"","null","html-keyboard-response","156","2.0.0","171674","pb28mlq07mx","smaller","otter","I think the purpose of this experiment was to see if we could get the smaller image even if the subject was objectively bigger in our minds.","No","<div style=""font-size:60px;"">+</div>","null","","","","","","",""
"","517","image-keyboard-response","157","2.0.0","172203","pb28mlq07mx","smaller","otter","I think the purpose of this experiment was to see if we could get the smaller image even if the subject was objectively bigger in our minds.","No","stimuli/14-Inongruent.jpg","z","","","","","left","z","true"
"","null","html-keyboard-response","158","2.0.0","173106","pb28mlq07mx","smaller","otter","I think the purpose of this experiment was to see if we could get the smaller image even if the subject was objectively bigger in our minds.","No","<p>Correct!</p>","null","","","","","","",""
"","null","html-keyboard-response","159","2.0.0","174109","pb28mlq07mx","smaller","otter","I think the purpose of this experiment was to see if we could get the smaller image even if the subject was objectively bigger in our minds.","No","<div style=""font-size:60px;"">+</div>","null","","","","","","",""
"","775","image-keyboard-response","160","2.0.0","174895","pb28mlq07mx","smaller","otter","I think the purpose of this experiment was to see if we could get the smaller image even if the subject was objectively bigger in our minds.","No","stimuli/15-Inongruent.jpg","z","","","","","left","z","true"
"","null","html-keyboard-response","161","2.0.0","175798","pb28mlq07mx","smaller","otter","I think the purpose of this experiment was to see if we could get the smaller image even if the subject was objectively bigger in our minds.","No","<p>Correct!</p>","null","","","","","","",""
"","null","html-keyboard-response","162","2.0.0","176801","pb28mlq07mx","smaller","otter","I think the purpose of this experiment was to see if we could get the smaller image even if the subject was objectively bigger in our minds.","No","<div style=""font-size:60px;"">+</div>","null","","","","","","",""
"","1190","image-keyboard-response","163","2.0.0","178001","pb28mlq07mx","smaller","otter","I think the purpose of this experiment was to see if we could get the smaller image even if the subject was objectively bigger in our minds.","No","stimuli/31-Inongruent.jpg","z","","","","","left","z","true"
"","null","html-keyboard-response","164","2.0.0","178904","pb28mlq07mx","smaller","otter","I think the purpose of this experiment was to see if we could get the smaller image even if the subject was objectively bigger in our minds.","No","<p>Correct!</p>","null","","","","","","",""
"","null","html-keyboard-response","165","2.0.0","179907","pb28mlq07mx","smaller","otter","I think the purpose of this experiment was to see if we could get the smaller image even if the subject was objectively bigger in our minds.","No","<div style=""font-size:60px;"">+</div>","null","","","","","","",""
"","645","image-keyboard-response","166","2.0.0","180564","pb28mlq07mx","smaller","otter","I think the purpose of this experiment was to see if we could get the smaller image even if the subject was objectively bigger in our minds.","No","stimuli/22-Inongruent.jpg","z","","","","","left","z","true"
"","null","html-keyboard-response","167","2.0.0","181467","pb28mlq07mx","smaller","otter","I think the purpose of this experiment was to see if we could get the smaller image even if the subject was objectively bigger in our minds.","No","<p>Correct!</p>","null","","","","","","",""
"","null","html-keyboard-response","168","2.0.0","182470","pb28mlq07mx","smaller","otter","I think the purpose of this experiment was to see if we could get the smaller image even if the subject was objectively bigger in our minds.","No","<div style=""font-size:60px;"">+</div>","null","","","","","","",""
"","1545","image-keyboard-response","169","2.0.0","184025","pb28mlq07mx","smaller","otter","I think the purpose of this experiment was to see if we could get the smaller image even if the subject was objectively bigger in our minds.","No","stimuli/16-Congruent.jpg","m","","","","","right","m","true"
"","null","html-keyboard-response","170","2.0.0","184928","pb28mlq07mx","smaller","otter","I think the purpose of this experiment was to see if we could get the smaller image even if the subject was objectively bigger in our minds.","No","<p>Correct!</p>","null","","","","","","",""
"","null","html-keyboard-response","171","2.0.0","185931","pb28mlq07mx","smaller","otter","I think the purpose of this experiment was to see if we could get the smaller image even if the subject was objectively bigger in our minds.","No","<div style=""font-size:60px;"">+</div>","null","","","","","","",""
"","2539","image-keyboard-response","172","2.0.0","188480","pb28mlq07mx","smaller","otter","I think the purpose of this experiment was to see if we could get the smaller image even if the subject was objectively bigger in our minds.","No","stimuli/9-Inongruent.jpg","z","","","","","left","z","true"
"","null","html-keyboard-response","173","2.0.0","189383","pb28mlq07mx","smaller","otter","I think the purpose of this experiment was to see if we could get the smaller image even if the subject was objectively bigger in our minds.","No","<p>Correct!</p>","null","","","","","","",""
"","null","html-keyboard-response","174","2.0.0","190387","pb28mlq07mx","smaller","otter","I think the purpose of this experiment was to see if we could get the smaller image even if the subject was objectively bigger in our minds.","No","<div style=""font-size:60px;"">+</div>","null","","","","","","",""
"","2578","image-keyboard-response","175","2.0.0","192974","pb28mlq07mx","smaller","otter","I think the purpose of this experiment was to see if we could get the smaller image even if the subject was objectively bigger in our minds.","No","stimuli/27-Congruent.jpg","m","","","","","right","m","true"
"","null","html-keyboard-response","176","2.0.0","193878","pb28mlq07mx","smaller","otter","I think the purpose of this experiment was to see if we could get the smaller image even if the subject was objectively bigger in our minds.","No","<p>Correct!</p>","null","","","","","","",""
"","null","html-keyboard-response","177","2.0.0","194881","pb28mlq07mx","smaller","otter","I think the purpose of this experiment was to see if we could get the smaller image even if the subject was objectively bigger in our minds.","No","<div style=""font-size:60px;"">+</div>","null","","","","","","",""
"","592","image-keyboard-response","178","2.0.0","195482","pb28mlq07mx","smaller","otter","I think the purpose of this experiment was to see if we could get the smaller image even if the subject was objectively bigger in our minds.","No","stimuli/1-Congruent.jpg","m","","","","","right","m","true"
"","null","html-keyboard-response","179","2.0.0","196385","pb28mlq07mx","smaller","otter","I think the purpose of this experiment was to see if we could get the smaller image even if the subject was objectively bigger in our minds.","No","<p>Correct!</p>","null","","","","","","",""
"","null","html-keyboard-response","180","2.0.0","197388","pb28mlq07mx","smaller","otter","I think the purpose of this experiment was to see if we could get the smaller image even if the subject was objectively bigger in our minds.","No","<div style=""font-size:60px;"">+</div>","null","","","","","","",""
"","1208","image-keyboard-response","181","2.0.0","198607","pb28mlq07mx","smaller","otter","I think the purpose of this experiment was to see if we could get the smaller image even if the subject was objectively bigger in our minds.","No","stimuli/17-Inongruent.jpg","z","","","","","left","z","true"
"","null","html-keyboard-response","182","2.0.0","199509","pb28mlq07mx","smaller","otter","I think the purpose of this experiment was to see if we could get the smaller image even if the subject was objectively bigger in our minds.","No","<p>Correct!</p>","null","","","","","","",""
"","null","html-keyboard-response","183","2.0.0","200512","pb28mlq07mx","smaller","otter","I think the purpose of this experiment was to see if we could get the smaller image even if the subject was objectively bigger in our minds.","No","<div style=""font-size:60px;"">+</div>","null","","","","","","",""
"","824","image-keyboard-response","184","2.0.0","201347","pb28mlq07mx","smaller","otter","I think the purpose of this experiment was to see if we could get the smaller image even if the subject was objectively bigger in our minds.","No","stimuli/4-Inongruent.jpg","z","","","","","left","z","true"
"","null","html-keyboard-response","185","2.0.0","202249","pb28mlq07mx","smaller","otter","I think the purpose of this experiment was to see if we could get the smaller image even if the subject was objectively bigger in our minds.","No","<p>Correct!</p>","null","","","","","","",""
"","null","html-keyboard-response","186","2.0.0","203252","pb28mlq07mx","smaller","otter","I think the purpose of this experiment was to see if we could get the smaller image even if the subject was objectively bigger in our minds.","No","<div style=""font-size:60px;"">+</div>","null","","","","","","",""
"","2174","image-keyboard-response","187","2.0.0","205428","pb28mlq07mx","smaller","otter","I think the purpose of this experiment was to see if we could get the smaller image even if the subject was objectively bigger in our minds.","No","stimuli/1-Congruent.jpg","m","","","","","right","m","true"
"","null","html-keyboard-response","188","2.0.0","206331","pb28mlq07mx","smaller","otter","I think the purpose of this experiment was to see if we could get the smaller image even if the subject was objectively bigger in our minds.","No","<p>Correct!</p>","null","","","","","","",""
"","null","html-keyboard-response","189","2.0.0","207334","pb28mlq07mx","smaller","otter","I think the purpose of this experiment was to see if we could get the smaller image even if the subject was objectively bigger in our minds.","No","<div style=""font-size:60px;"">+</div>","null","","","","","","",""
"","481","image-keyboard-response","190","2.0.0","207825","pb28mlq07mx","smaller","otter","I think the purpose of this experiment was to see if we could get the smaller image even if the subject was objectively bigger in our minds.","No","stimuli/19-Inongruent.jpg","z","","","","","left","z","true"
"","null","html-keyboard-response","191","2.0.0","208728","pb28mlq07mx","smaller","otter","I think the purpose of this experiment was to see if we could get the smaller image even if the subject was objectively bigger in our minds.","No","<p>Correct!</p>","null","","","","","","",""
"","null","html-keyboard-response","192","2.0.0","209730","pb28mlq07mx","smaller","otter","I think the purpose of this experiment was to see if we could get the smaller image even if the subject was objectively bigger in our minds.","No","<div style=""font-size:60px;"">+</div>","null","","","","","","",""
"","762","image-keyboard-response","193","2.0.0","210503","pb28mlq07mx","smaller","otter","I think the purpose of this experiment was to see if we could get the smaller image even if the subject was objectively bigger in our minds.","No","stimuli/13-Congruent.jpg","m","","","","","right","m","true"
"","null","html-keyboard-response","194","2.0.0","211405","pb28mlq07mx","smaller","otter","I think the purpose of this experiment was to see if we could get the smaller image even if the subject was objectively bigger in our minds.","No","<p>Correct!</p>","null","","","","","","",""
"","null","html-keyboard-response","195","2.0.0","212407","pb28mlq07mx","smaller","otter","I think the purpose of this experiment was to see if we could get the smaller image even if the subject was objectively bigger in our minds.","No","<div style=""font-size:60px;"">+</div>","null","","","","","","",""
"","789","image-keyboard-response","196","2.0.0","213205","pb28mlq07mx","smaller","otter","I think the purpose of this experiment was to see if we could get the smaller image even if the subject was objectively bigger in our minds.","No","stimuli/32-Congruent.jpg","m","","","","","right","m","true"
"","null","html-keyboard-response","197","2.0.0","214109","pb28mlq07mx","smaller","otter","I think the purpose of this experiment was to see if we could get the smaller image even if the subject was objectively bigger in our minds.","No","<p>Correct!</p>","null","","","","","","",""
"","null","html-keyboard-response","198","2.0.0","215111","pb28mlq07mx","smaller","otter","I think the purpose of this experiment was to see if we could get the smaller image even if the subject was objectively bigger in our minds.","No","<div style=""font-size:60px;"">+</div>","null","","","","","","",""
"","545","image-keyboard-response","199","2.0.0","215666","pb28mlq07mx","smaller","otter","I think the purpose of this experiment was to see if we could get the smaller image even if the subject was objectively bigger in our minds.","No","stimuli/5-Inongruent.jpg","z","","","","","left","z","true"
"","null","html-keyboard-response","200","2.0.0","216569","pb28mlq07mx","smaller","otter","I think the purpose of this experiment was to see if we could get the smaller image even if the subject was objectively bigger in our minds.","No","<p>Correct!</p>","null","","","","","","",""
"","null","html-keyboard-response","201","2.0.0","217571","pb28mlq07mx","smaller","otter","I think the purpose of this experiment was to see if we could get the smaller image even if the subject was objectively bigger in our minds.","No","<div style=""font-size:60px;"">+</div>","null","","","","","","",""
"","503","image-keyboard-response","202","2.0.0","218084","pb28mlq07mx","smaller","otter","I think the purpose of this experiment was to see if we could get the smaller image even if the subject was objectively bigger in our minds.","No","stimuli/10-Congruent.jpg","m","","","","","right","m","true"
"","null","html-keyboard-response","203","2.0.0","218987","pb28mlq07mx","smaller","otter","I think the purpose of this experiment was to see if we could get the smaller image even if the subject was objectively bigger in our minds.","No","<p>Correct!</p>","null","","","","","","",""
"","null","html-keyboard-response","204","2.0.0","219990","pb28mlq07mx","smaller","otter","I think the purpose of this experiment was to see if we could get the smaller image even if the subject was objectively bigger in our minds.","No","<div style=""font-size:60px;"">+</div>","null","","","","","","",""
"","539","image-keyboard-response","205","2.0.0","220539","pb28mlq07mx","smaller","otter","I think the purpose of this experiment was to see if we could get the smaller image even if the subject was objectively bigger in our minds.","No","stimuli/35-Inongruent.jpg","z","","","","","left","z","true"
"","null","html-keyboard-response","206","2.0.0","221442","pb28mlq07mx","smaller","otter","I think the purpose of this experiment was to see if we could get the smaller image even if the subject was objectively bigger in our minds.","No","<p>Correct!</p>","null","","","","","","",""
"","null","html-keyboard-response","207","2.0.0","222445","pb28mlq07mx","smaller","otter","I think the purpose of this experiment was to see if we could get the smaller image even if the subject was objectively bigger in our minds.","No","<div style=""font-size:60px;"">+</div>","null","","","","","","",""
"","680","image-keyboard-response","208","2.0.0","223128","pb28mlq07mx","smaller","otter","I think the purpose of this experiment was to see if we could get the smaller image even if the subject was objectively bigger in our minds.","No","stimuli/21-Inongruent.jpg","z","","","","","left","z","true"
"","null","html-keyboard-response","209","2.0.0","224030","pb28mlq07mx","smaller","otter","I think the purpose of this experiment was to see if we could get the smaller image even if the subject was objectively bigger in our minds.","No","<p>Correct!</p>","null","","","","","","",""
"","null","html-keyboard-response","210","2.0.0","225032","pb28mlq07mx","smaller","otter","I think the purpose of this experiment was to see if we could get the smaller image even if the subject was objectively bigger in our minds.","No","<div style=""font-size:60px;"">+</div>","null","","","","","","",""
"","560","image-keyboard-response","211","2.0.0","225595","pb28mlq07mx","smaller","otter","I think the purpose of this experiment was to see if we could get the smaller image even if the subject was objectively bigger in our minds.","No","stimuli/11-Inongruent.jpg","z","","","","","left","z","true"
"","null","html-keyboard-response","212","2.0.0","226498","pb28mlq07mx","smaller","otter","I think the purpose of this experiment was to see if we could get the smaller image even if the subject was objectively bigger in our minds.","No","<p>Correct!</p>","null","","","","","","",""
"","null","html-keyboard-response","213","2.0.0","227501","pb28mlq07mx","smaller","otter","I think the purpose of this experiment was to see if we could get the smaller image even if the subject was objectively bigger in our minds.","No","<div style=""font-size:60px;"">+</div>","null","","","","","","",""
"","532","image-keyboard-response","214","2.0.0","228043","pb28mlq07mx","smaller","otter","I think the purpose of this experiment was to see if we could get the smaller image even if the subject was objectively bigger in our minds.","No","stimuli/23-Inongruent.jpg","z","","","","","left","z","true"
"","null","html-keyboard-response","215","2.0.0","228946","pb28mlq07mx","smaller","otter","I think the purpose of this experiment was to see if we could get the smaller image even if the subject was objectively bigger in our minds.","No","<p>Correct!</p>","null","","","","","","",""
"","null","html-keyboard-response","216","2.0.0","229949","pb28mlq07mx","smaller","otter","I think the purpose of this experiment was to see if we could get the smaller image even if the subject was objectively bigger in our minds.","No","<div style=""font-size:60px;"">+</div>","null","","","","","","",""
"","845","image-keyboard-response","217","2.0.0","230804","pb28mlq07mx","smaller","otter","I think the purpose of this experiment was to see if we could get the smaller image even if the subject was objectively bigger in our minds.","No","stimuli/29-Inongruent.jpg","z","","","","","left","z","true"
"","null","html-keyboard-response","218","2.0.0","231707","pb28mlq07mx","smaller","otter","I think the purpose of this experiment was to see if we could get the smaller image even if the subject was objectively bigger in our minds.","No","<p>Correct!</p>","null","","","","","","",""
"","null","html-keyboard-response","219","2.0.0","232710","pb28mlq07mx","smaller","otter","I think the purpose of this experiment was to see if we could get the smaller image even if the subject was objectively bigger in our minds.","No","<div style=""font-size:60px;"">+</div>","null","","","","","","",""
"","545","image-keyboard-response","220","2.0.0","233265","pb28mlq07mx","smaller","otter","I think the purpose of this experiment was to see if we could get the smaller image even if the subject was objectively bigger in our minds.","No","stimuli/3-Inongruent.jpg","z","","","","","left","z","true"
"","null","html-keyboard-response","221","2.0.0","234167","pb28mlq07mx","smaller","otter","I think the purpose of this experiment was to see if we could get the smaller image even if the subject was objectively bigger in our minds.","No","<p>Correct!</p>","null","","","","","","",""
"","null","html-keyboard-response","222","2.0.0","235170","pb28mlq07mx","smaller","otter","I think the purpose of this experiment was to see if we could get the smaller image even if the subject was objectively bigger in our minds.","No","<div style=""font-size:60px;"">+</div>","null","","","","","","",""
"","690","image-keyboard-response","223","2.0.0","235870","pb28mlq07mx","smaller","otter","I think the purpose of this experiment was to see if we could get the smaller image even if the subject was objectively bigger in our minds.","No","stimuli/5-Congruent.jpg","m","","","","","right","m","true"
"","null","html-keyboard-response","224","2.0.0","236774","pb28mlq07mx","smaller","otter","I think the purpose of this experiment was to see if we could get the smaller image even if the subject was objectively bigger in our minds.","No","<p>Correct!</p>","null","","","","","","",""
"","null","html-keyboard-response","225","2.0.0","237778","pb28mlq07mx","smaller","otter","I think the purpose of this experiment was to see if we could get the smaller image even if the subject was objectively bigger in our minds.","No","<div style=""font-size:60px;"">+</div>","null","","","","","","",""
"","917","image-keyboard-response","226","2.0.0","238705","pb28mlq07mx","smaller","otter","I think the purpose of this experiment was to see if we could get the smaller image even if the subject was objectively bigger in our minds.","No","stimuli/18-Congruent.jpg","m","","","","","right","m","true"
"","null","html-keyboard-response","227","2.0.0","239608","pb28mlq07mx","smaller","otter","I think the purpose of this experiment was to see if we could get the smaller image even if the subject was objectively bigger in our minds.","No","<p>Correct!</p>","null","","","","","","",""
"","null","html-keyboard-response","228","2.0.0","240612","pb28mlq07mx","smaller","otter","I think the purpose of this experiment was to see if we could get the smaller image even if the subject was objectively bigger in our minds.","No","<div style=""font-size:60px;"">+</div>","null","","","","","","",""
"","687","image-keyboard-response","229","2.0.0","241311","pb28mlq07mx","smaller","otter","I think the purpose of this experiment was to see if we could get the smaller image even if the subject was objectively bigger in our minds.","No","stimuli/34-Inongruent.jpg","z","","","","","left","z","true"
"","null","html-keyboard-response","230","2.0.0","242215","pb28mlq07mx","smaller","otter","I think the purpose of this experiment was to see if we could get the smaller image even if the subject was objectively bigger in our minds.","No","<p>Correct!</p>","null","","","","","","",""
"","null","html-keyboard-response","231","2.0.0","243218","pb28mlq07mx","smaller","otter","I think the purpose of this experiment was to see if we could get the smaller image even if the subject was objectively bigger in our minds.","No","<div style=""font-size:60px;"">+</div>","null","","","","","","",""
"","752","image-keyboard-response","232","2.0.0","243980","pb28mlq07mx","smaller","otter","I think the purpose of this experiment was to see if we could get the smaller image even if the subject was objectively bigger in our minds.","No","stimuli/3-Congruent.jpg","m","","","","","right","m","true"
"","null","html-keyboard-response","233","2.0.0","244882","pb28mlq07mx","smaller","otter","I think the purpose of this experiment was to see if we could get the smaller image even if the subject was objectively bigger in our minds.","No","<p>Correct!</p>","null","","","","","","",""
"","null","html-keyboard-response","234","2.0.0","245884","pb28mlq07mx","smaller","otter","I think the purpose of this experiment was to see if we could get the smaller image even if the subject was objectively bigger in our minds.","No","<div style=""font-size:60px;"">+</div>","null","","","","","","",""
"","653","image-keyboard-response","235","2.0.0","246549","pb28mlq07mx","smaller","otter","I think the purpose of this experiment was to see if we could get the smaller image even if the subject was objectively bigger in our minds.","No","stimuli/21-Congruent.jpg","m","","","","","right","m","true"
"","null","html-keyboard-response","236","2.0.0","247451","pb28mlq07mx","smaller","otter","I think the purpose of this experiment was to see if we could get the smaller image even if the subject was objectively bigger in our minds.","No","<p>Correct!</p>","null","","","","","","",""
"","null","html-keyboard-response","237","2.0.0","248454","pb28mlq07mx","smaller","otter","I think the purpose of this experiment was to see if we could get the smaller image even if the subject was objectively bigger in our minds.","No","<div style=""font-size:60px;"">+</div>","null","","","","","","",""
"","1726","image-keyboard-response","238","2.0.0","250190","pb28mlq07mx","smaller","otter","I think the purpose of this experiment was to see if we could get the smaller image even if the subject was objectively bigger in our minds.","No","stimuli/25-Congruent.jpg","m","","","","","right","m","true"
"","null","html-keyboard-response","239","2.0.0","251092","pb28mlq07mx","smaller","otter","I think the purpose of this experiment was to see if we could get the smaller image even if the subject was objectively bigger in our minds.","No","<p>Correct!</p>","null","","","","","","",""
"","null","html-keyboard-response","240","2.0.0","252095","pb28mlq07mx","smaller","otter","I think the purpose of this experiment was to see if we could get the smaller image even if the subject was objectively bigger in our minds.","No","<div style=""font-size:60px;"">+</div>","null","","","","","","",""
"","1088","image-keyboard-response","241","2.0.0","253193","pb28mlq07mx","smaller","otter","I think the purpose of this experiment was to see if we could get the smaller image even if the subject was objectively bigger in our minds.","No","stimuli/9-Congruent.jpg","m","","","","","right","m","true"
"","null","html-keyboard-response","242","2.0.0","254095","pb28mlq07mx","smaller","otter","I think the purpose of this experiment was to see if we could get the smaller image even if the subject was objectively bigger in our minds.","No","<p>Correct!</p>","null","","","","","","",""
"","null","html-keyboard-response","243","2.0.0","255098","pb28mlq07mx","smaller","otter","I think the purpose of this experiment was to see if we could get the smaller image even if the subject was objectively bigger in our minds.","No","<div style=""font-size:60px;"">+</div>","null","","","","","","",""
"","658","image-keyboard-response","244","2.0.0","255765","pb28mlq07mx","smaller","otter","I think the purpose of this experiment was to see if we could get the smaller image even if the subject was objectively bigger in our minds.","No","stimuli/16-Inongruent.jpg","z","","","","","left","z","true"
"","null","html-keyboard-response","245","2.0.0","256668","pb28mlq07mx","smaller","otter","I think the purpose of this experiment was to see if we could get the smaller image even if the subject was objectively bigger in our minds.","No","<p>Correct!</p>","null","","","","","","",""
"","null","html-keyboard-response","246","2.0.0","257671","pb28mlq07mx","smaller","otter","I think the purpose of this experiment was to see if we could get the smaller image even if the subject was objectively bigger in our minds.","No","<div style=""font-size:60px;"">+</div>","null","","","","","","",""
"","554","image-keyboard-response","247","2.0.0","258227","pb28mlq07mx","smaller","otter","I think the purpose of this experiment was to see if we could get the smaller image even if the subject was objectively bigger in our minds.","No","stimuli/10-Congruent.jpg","m","","","","","right","m","true"
"","null","html-keyboard-response","248","2.0.0","259130","pb28mlq07mx","smaller","otter","I think the purpose of this experiment was to see if we could get the smaller image even if the subject was objectively bigger in our minds.","No","<p>Correct!</p>","null","","","","","","",""
"","null","html-keyboard-response","249","2.0.0","260133","pb28mlq07mx","smaller","otter","I think the purpose of this experiment was to see if we could get the smaller image even if the subject was objectively bigger in our minds.","No","<div style=""font-size:60px;"">+</div>","null","","","","","","",""
"","864","image-keyboard-response","250","2.0.0","261007","pb28mlq07mx","smaller","otter","I think the purpose of this experiment was to see if we could get the smaller image even if the subject was objectively bigger in our minds.","No","stimuli/24-Congruent.jpg","m","","","","","right","m","true"
"","null","html-keyboard-response","251","2.0.0","261910","pb28mlq07mx","smaller","otter","I think the purpose of this experiment was to see if we could get the smaller image even if the subject was objectively bigger in our minds.","No","<p>Correct!</p>","null","","","","","","",""
"","null","html-keyboard-response","252","2.0.0","262913","pb28mlq07mx","smaller","otter","I think the purpose of this experiment was to see if we could get the smaller image even if the subject was objectively bigger in our minds.","No","<div style=""font-size:60px;"">+</div>","null","","","","","","",""
"","573","image-keyboard-response","253","2.0.0","263497","pb28mlq07mx","smaller","otter","I think the purpose of this experiment was to see if we could get the smaller image even if the subject was objectively bigger in our minds.","No","stimuli/23-Congruent.jpg","z","","","","","right","m","false"
"","null","html-keyboard-response","254","2.0.0","268500","pb28mlq07mx","smaller","otter","I think the purpose of this experiment was to see if we could get the smaller image even if the subject was objectively bigger in our minds.","No","<p>Incorrect.</p><p>Remember to select the <b>smaller</b> image.</p><p>Continuing in 5 seconds...</p>","null","","","","","","",""
"","null","html-keyboard-response","255","2.0.0","269504","pb28mlq07mx","smaller","otter","I think the purpose of this experiment was to see if we could get the smaller image even if the subject was objectively bigger in our minds.","No","<div style=""font-size:60px;"">+</div>","null","","","","","","",""
"","926","image-keyboard-response","256","2.0.0","270440","pb28mlq07mx","smaller","otter","I think the purpose of this experiment was to see if we could get the smaller image even if the subject was objectively bigger in our minds.","No","stimuli/4-Inongruent.jpg","z","","","","","left","z","true"
"","null","html-keyboard-response","257","2.0.0","271343","pb28mlq07mx","smaller","otter","I think the purpose of this experiment was to see if we could get the smaller image even if the subject was objectively bigger in our minds.","No","<p>Correct!</p>","null","","","","","","",""
"","null","html-keyboard-response","258","2.0.0","272346","pb28mlq07mx","smaller","otter","I think the purpose of this experiment was to see if we could get the smaller image even if the subject was objectively bigger in our minds.","No","<div style=""font-size:60px;"">+</div>","null","","","","","","",""
"","1023","image-keyboard-response","259","2.0.0","273380","pb28mlq07mx","smaller","otter","I think the purpose of this experiment was to see if we could get the smaller image even if the subject was objectively bigger in our minds.","No","stimuli/26-Inongruent.jpg","z","","","","","left","z","true"
"","null","html-keyboard-response","260","2.0.0","274283","pb28mlq07mx","smaller","otter","I think the purpose of this experiment was to see if we could get the smaller image even if the subject was objectively bigger in our minds.","No","<p>Correct!</p>","null","","","","","","",""
"","null","html-keyboard-response","261","2.0.0","275286","pb28mlq07mx","smaller","otter","I think the purpose of this experiment was to see if we could get the smaller image even if the subject was objectively bigger in our minds.","No","<div style=""font-size:60px;"">+</div>","null","","","","","","",""
"","2301","image-keyboard-response","262","2.0.0","277596","pb28mlq07mx","smaller","otter","I think the purpose of this experiment was to see if we could get the smaller image even if the subject was objectively bigger in our minds.","No","stimuli/11-Congruent.jpg","m","","","","","right","m","true"
"","null","html-keyboard-response","263","2.0.0","278499","pb28mlq07mx","smaller","otter","I think the purpose of this experiment was to see if we could get the smaller image even if the subject was objectively bigger in our minds.","No","<p>Correct!</p>","null","","","","","","",""
"","null","html-keyboard-response","264","2.0.0","279502","pb28mlq07mx","smaller","otter","I think the purpose of this experiment was to see if we could get the smaller image even if the subject was objectively bigger in our minds.","No","<div style=""font-size:60px;"">+</div>","null","","","","","","",""
"","745","image-keyboard-response","265","2.0.0","280259","pb28mlq07mx","smaller","otter","I think the purpose of this experiment was to see if we could get the smaller image even if the subject was objectively bigger in our minds.","No","stimuli/33-Congruent.jpg","m","","","","","right","m","true"
"","null","html-keyboard-response","266","2.0.0","281162","pb28mlq07mx","smaller","otter","I think the purpose of this experiment was to see if we could get the smaller image even if the subject was objectively bigger in our minds.","No","<p>Correct!</p>","null","","","","","","",""
"","null","html-keyboard-response","267","2.0.0","282164","pb28mlq07mx","smaller","otter","I think the purpose of this experiment was to see if we could get the smaller image even if the subject was objectively bigger in our minds.","No","<div style=""font-size:60px;"">+</div>","null","","","","","","",""
"","706","image-keyboard-response","268","2.0.0","282873","pb28mlq07mx","smaller","otter","I think the purpose of this experiment was to see if we could get the smaller image even if the subject was objectively bigger in our minds.","No","stimuli/21-Congruent.jpg","m","","","","","right","m","true"
"","null","html-keyboard-response","269","2.0.0","283776","pb28mlq07mx","smaller","otter","I think the purpose of this experiment was to see if we could get the smaller image even if the subject was objectively bigger in our minds.","No","<p>Correct!</p>","null","","","","","","",""
"","null","html-keyboard-response","270","2.0.0","284779","pb28mlq07mx","smaller","otter","I think the purpose of this experiment was to see if we could get the smaller image even if the subject was objectively bigger in our minds.","No","<div style=""font-size:60px;"">+</div>","null","","","","","","",""
"","1085","image-keyboard-response","271","2.0.0","285875","pb28mlq07mx","smaller","otter","I think the purpose of this experiment was to see if we could get the smaller image even if the subject was objectively bigger in our minds.","No","stimuli/14-Congruent.jpg","m","","","","","right","m","true"
"","null","html-keyboard-response","272","2.0.0","286779","pb28mlq07mx","smaller","otter","I think the purpose of this experiment was to see if we could get the smaller image even if the subject was objectively bigger in our minds.","No","<p>Correct!</p>","null","","","","","","",""
"","null","html-keyboard-response","273","2.0.0","287782","pb28mlq07mx","smaller","otter","I think the purpose of this experiment was to see if we could get the smaller image even if the subject was objectively bigger in our minds.","No","<div style=""font-size:60px;"">+</div>","null","","","","","","",""
"","964","image-keyboard-response","274","2.0.0","288755","pb28mlq07mx","smaller","otter","I think the purpose of this experiment was to see if we could get the smaller image even if the subject was objectively bigger in our minds.","No","stimuli/18-Inongruent.jpg","z","","","","","left","z","true"
"","null","html-keyboard-response","275","2.0.0","289659","pb28mlq07mx","smaller","otter","I think the purpose of this experiment was to see if we could get the smaller image even if the subject was objectively bigger in our minds.","No","<p>Correct!</p>","null","","","","","","",""
"","null","html-keyboard-response","276","2.0.0","290662","pb28mlq07mx","smaller","otter","I think the purpose of this experiment was to see if we could get the smaller image even if the subject was objectively bigger in our minds.","No","<div style=""font-size:60px;"">+</div>","null","","","","","","",""
"","1293","image-keyboard-response","277","2.0.0","291964","pb28mlq07mx","smaller","otter","I think the purpose of this experiment was to see if we could get the smaller image even if the subject was objectively bigger in our minds.","No","stimuli/31-Congruent.jpg","m","","","","","right","m","true"
"","null","html-keyboard-response","278","2.0.0","292867","pb28mlq07mx","smaller","otter","I think the purpose of this experiment was to see if we could get the smaller image even if the subject was objectively bigger in our minds.","No","<p>Correct!</p>","null","","","","","","",""
"","null","html-keyboard-response","279","2.0.0","293870","pb28mlq07mx","smaller","otter","I think the purpose of this experiment was to see if we could get the smaller image even if the subject was objectively bigger in our minds.","No","<div style=""font-size:60px;"">+</div>","null","","","","","","",""
"","619","image-keyboard-response","280","2.0.0","294499","pb28mlq07mx","smaller","otter","I think the purpose of this experiment was to see if we could get the smaller image even if the subject was objectively bigger in our minds.","No","stimuli/2-Inongruent.jpg","z","","","","","left","z","true"
"","null","html-keyboard-response","281","2.0.0","295402","pb28mlq07mx","smaller","otter","I think the purpose of this experiment was to see if we could get the smaller image even if the subject was objectively bigger in our minds.","No","<p>Correct!</p>","null","","","","","","",""
"","null","html-keyboard-response","282","2.0.0","296405","pb28mlq07mx","smaller","otter","I think the purpose of this experiment was to see if we could get the smaller image even if the subject was objectively bigger in our minds.","No","<div style=""font-size:60px;"">+</div>","null","","","","","","",""
"","545","image-keyboard-response","283","2.0.0","296960","pb28mlq07mx","smaller","otter","I think the purpose of this experiment was to see if we could get the smaller image even if the subject was objectively bigger in our minds.","No","stimuli/30-Congruent.jpg","m","","","","","right","m","true"
"","null","html-keyboard-response","284","2.0.0","297863","pb28mlq07mx","smaller","otter","I think the purpose of this experiment was to see if we could get the smaller image even if the subject was objectively bigger in our minds.","No","<p>Correct!</p>","null","","","","","","",""
"","null","html-keyboard-response","285","2.0.0","298866","pb28mlq07mx","smaller","otter","I think the purpose of this experiment was to see if we could get the smaller image even if the subject was objectively bigger in our minds.","No","<div style=""font-size:60px;"">+</div>","null","","","","","","",""
"","872","image-keyboard-response","286","2.0.0","299748","pb28mlq07mx","smaller","otter","I think the purpose of this experiment was to see if we could get the smaller image even if the subject was objectively bigger in our minds.","No","stimuli/33-Inongruent.jpg","z","","","","","left","z","true"
"","null","html-keyboard-response","287","2.0.0","300651","pb28mlq07mx","smaller","otter","I think the purpose of this experiment was to see if we could get the smaller image even if the subject was objectively bigger in our minds.","No","<p>Correct!</p>","null","","","","","","",""
"","null","html-keyboard-response","288","2.0.0","301654","pb28mlq07mx","smaller","otter","I think the purpose of this experiment was to see if we could get the smaller image even if the subject was objectively bigger in our minds.","No","<div style=""font-size:60px;"">+</div>","null","","","","","","",""
"","747","image-keyboard-response","289","2.0.0","302410","pb28mlq07mx","smaller","otter","I think the purpose of this experiment was to see if we could get the smaller image even if the subject was objectively bigger in our minds.","No","stimuli/24-Inongruent.jpg","z","","","","","left","z","true"
"","null","html-keyboard-response","290","2.0.0","303312","pb28mlq07mx","smaller","otter","I think the purpose of this experiment was to see if we could get the smaller image even if the subject was objectively bigger in our minds.","No","<p>Correct!</p>","null","","","","","","",""
"","null","html-keyboard-response","291","2.0.0","304315","pb28mlq07mx","smaller","otter","I think the purpose of this experiment was to see if we could get the smaller image even if the subject was objectively bigger in our minds.","No","<div style=""font-size:60px;"">+</div>","null","","","","","","",""
"","1000","image-keyboard-response","292","2.0.0","305324","pb28mlq07mx","smaller","otter","I think the purpose of this experiment was to see if we could get the smaller image even if the subject was objectively bigger in our minds.","No","stimuli/8-Inongruent.jpg","z","","","","","left","z","true"
"","null","html-keyboard-response","293","2.0.0","306227","pb28mlq07mx","smaller","otter","I think the purpose of this experiment was to see if we could get the smaller image even if the subject was objectively bigger in our minds.","No","<p>Correct!</p>","null","","","","","","",""
"","null","html-keyboard-response","294","2.0.0","307231","pb28mlq07mx","smaller","otter","I think the purpose of this experiment was to see if we could get the smaller image even if the subject was objectively bigger in our minds.","No","<div style=""font-size:60px;"">+</div>","null","","","","","","",""
"","851","image-keyboard-response","295","2.0.0","308085","pb28mlq07mx","smaller","otter","I think the purpose of this experiment was to see if we could get the smaller image even if the subject was objectively bigger in our minds.","No","stimuli/11-Congruent.jpg","m","","","","","right","m","true"
"","null","html-keyboard-response","296","2.0.0","308987","pb28mlq07mx","smaller","otter","I think the purpose of this experiment was to see if we could get the smaller image even if the subject was objectively bigger in our minds.","No","<p>Correct!</p>","null","","","","","","",""
"","null","html-keyboard-response","297","2.0.0","309990","pb28mlq07mx","smaller","otter","I think the purpose of this experiment was to see if we could get the smaller image even if the subject was objectively bigger in our minds.","No","<div style=""font-size:60px;"">+</div>","null","","","","","","",""
"","772","image-keyboard-response","298","2.0.0","310763","pb28mlq07mx","smaller","otter","I think the purpose of this experiment was to see if we could get the smaller image even if the subject was objectively bigger in our minds.","No","stimuli/30-Congruent.jpg","m","","","","","right","m","true"
"","null","html-keyboard-response","299","2.0.0","311665","pb28mlq07mx","smaller","otter","I think the purpose of this experiment was to see if we could get the smaller image even if the subject was objectively bigger in our minds.","No","<p>Correct!</p>","null","","","","","","",""
"","null","html-keyboard-response","300","2.0.0","312668","pb28mlq07mx","smaller","otter","I think the purpose of this experiment was to see if we could get the smaller image even if the subject was objectively bigger in our minds.","No","<div style=""font-size:60px;"">+</div>","null","","","","","","",""
"","561","image-keyboard-response","301","2.0.0","313240","pb28mlq07mx","smaller","otter","I think the purpose of this experiment was to see if we could get the smaller image even if the subject was objectively bigger in our minds.","No","stimuli/20-Congruent.jpg","m","","","","","right","m","true"
"","null","html-keyboard-response","302","2.0.0","314143","pb28mlq07mx","smaller","otter","I think the purpose of this experiment was to see if we could get the smaller image even if the subject was objectively bigger in our minds.","No","<p>Correct!</p>","null","","","","","","",""
"","null","html-keyboard-response","303","2.0.0","315146","pb28mlq07mx","smaller","otter","I think the purpose of this experiment was to see if we could get the smaller image even if the subject was objectively bigger in our minds.","No","<div style=""font-size:60px;"">+</div>","null","","","","","","",""
"","866","image-keyboard-response","304","2.0.0","316023","pb28mlq07mx","smaller","otter","I think the purpose of this experiment was to see if we could get the smaller image even if the subject was objectively bigger in our minds.","No","stimuli/13-Inongruent.jpg","z","","","","","left","z","true"
"","null","html-keyboard-response","305","2.0.0","316926","pb28mlq07mx","smaller","otter","I think the purpose of this experiment was to see if we could get the smaller image even if the subject was objectively bigger in our minds.","No","<p>Correct!</p>","null","","","","","","",""
"","null","html-keyboard-response","306","2.0.0","317929","pb28mlq07mx","smaller","otter","I think the purpose of this experiment was to see if we could get the smaller image even if the subject was objectively bigger in our minds.","No","<div style=""font-size:60px;"">+</div>","null","","","","","","",""
"","758","image-keyboard-response","307","2.0.0","318697","pb28mlq07mx","smaller","otter","I think the purpose of this experiment was to see if we could get the smaller image even if the subject was objectively bigger in our minds.","No","stimuli/17-Inongruent.jpg","z","","","","","left","z","true"
"","null","html-keyboard-response","308","2.0.0","319600","pb28mlq07mx","smaller","otter","I think the purpose of this experiment was to see if we could get the smaller image even if the subject was objectively bigger in our minds.","No","<p>Correct!</p>","null","","","","","","",""
"","null","html-keyboard-response","309","2.0.0","320603","pb28mlq07mx","smaller","otter","I think the purpose of this experiment was to see if we could get the smaller image even if the subject was objectively bigger in our minds.","No","<div style=""font-size:60px;"">+</div>","null","","","","","","",""
"","722","image-keyboard-response","310","2.0.0","321335","pb28mlq07mx","smaller","otter","I think the purpose of this experiment was to see if we could get the smaller image even if the subject was objectively bigger in our minds.","No","stimuli/6-Congruent.jpg","m","","","","","right","m","true"
"","null","html-keyboard-response","311","2.0.0","322238","pb28mlq07mx","smaller","otter","I think the purpose of this experiment was to see if we could get the smaller image even if the subject was objectively bigger in our minds.","No","<p>Correct!</p>","null","","","","","","",""
"","null","html-keyboard-response","312","2.0.0","323241","pb28mlq07mx","smaller","otter","I think the purpose of this experiment was to see if we could get the smaller image even if the subject was objectively bigger in our minds.","No","<div style=""font-size:60px;"">+</div>","null","","","","","","",""
"","815","image-keyboard-response","313","2.0.0","324058","pb28mlq07mx","smaller","otter","I think the purpose of this experiment was to see if we could get the smaller image even if the subject was objectively bigger in our minds.","No","stimuli/25-Congruent.jpg","m","","","","","right","m","true"
"","null","html-keyboard-response","314","2.0.0","324960","pb28mlq07mx","smaller","otter","I think the purpose of this experiment was to see if we could get the smaller image even if the subject was objectively bigger in our minds.","No","<p>Correct!</p>","null","","","","","","",""
"","null","html-keyboard-response","315","2.0.0","325962","pb28mlq07mx","smaller","otter","I think the purpose of this experiment was to see if we could get the smaller image even if the subject was objectively bigger in our minds.","No","<div style=""font-size:60px;"">+</div>","null","","","","","","",""
"","1004","image-keyboard-response","316","2.0.0","326969","pb28mlq07mx","smaller","otter","I think the purpose of this experiment was to see if we could get the smaller image even if the subject was objectively bigger in our minds.","No","stimuli/13-Inongruent.jpg","z","","","","","left","z","true"
"","null","html-keyboard-response","317","2.0.0","327871","pb28mlq07mx","smaller","otter","I think the purpose of this experiment was to see if we could get the smaller image even if the subject was objectively bigger in our minds.","No","<p>Correct!</p>","null","","","","","","",""
"","null","html-keyboard-response","318","2.0.0","328874","pb28mlq07mx","smaller","otter","I think the purpose of this experiment was to see if we could get the smaller image even if the subject was objectively bigger in our minds.","No","<div style=""font-size:60px;"">+</div>","null","","","","","","",""
"","814","image-keyboard-response","319","2.0.0","329699","pb28mlq07mx","smaller","otter","I think the purpose of this experiment was to see if we could get the smaller image even if the subject was objectively bigger in our minds.","No","stimuli/36-Congruent.jpg","m","","","","","right","m","true"
"","null","html-keyboard-response","320","2.0.0","330602","pb28mlq07mx","smaller","otter","I think the purpose of this experiment was to see if we could get the smaller image even if the subject was objectively bigger in our minds.","No","<p>Correct!</p>","null","","","","","","",""
"","null","html-keyboard-response","321","2.0.0","331605","pb28mlq07mx","smaller","otter","I think the purpose of this experiment was to see if we could get the smaller image even if the subject was objectively bigger in our minds.","No","<div style=""font-size:60px;"">+</div>","null","","","","","","",""
"","798","image-keyboard-response","322","2.0.0","332413","pb28mlq07mx","smaller","otter","I think the purpose of this experiment was to see if we could get the smaller image even if the subject was objectively bigger in our minds.","No","stimuli/36-Inongruent.jpg","z","","","","","left","z","true"
"","null","html-keyboard-response","323","2.0.0","333316","pb28mlq07mx","smaller","otter","I think the purpose of this experiment was to see if we could get the smaller image even if the subject was objectively bigger in our minds.","No","<p>Correct!</p>","null","","","","","","",""
"","null","html-keyboard-response","324","2.0.0","334319","pb28mlq07mx","smaller","otter","I think the purpose of this experiment was to see if we could get the smaller image even if the subject was objectively bigger in our minds.","No","<div style=""font-size:60px;"">+</div>","null","","","","","","",""
"","600","image-keyboard-response","325","2.0.0","334921","pb28mlq07mx","smaller","otter","I think the purpose of this experiment was to see if we could get the smaller image even if the subject was objectively bigger in our minds.","No","stimuli/14-Congruent.jpg","m","","","","","right","m","true"
"","null","html-keyboard-response","326","2.0.0","335824","pb28mlq07mx","smaller","otter","I think the purpose of this experiment was to see if we could get the smaller image even if the subject was objectively bigger in our minds.","No","<p>Correct!</p>","null","","","","","","",""
"","null","html-keyboard-response","327","2.0.0","336826","pb28mlq07mx","smaller","otter","I think the purpose of this experiment was to see if we could get the smaller image even if the subject was objectively bigger in our minds.","No","<div style=""font-size:60px;"">+</div>","null","","","","","","",""
"","824","image-keyboard-response","328","2.0.0","337653","pb28mlq07mx","smaller","otter","I think the purpose of this experiment was to see if we could get the smaller image even if the subject was objectively bigger in our minds.","No","stimuli/3-Congruent.jpg","m","","","","","right","m","true"
"","null","html-keyboard-response","329","2.0.0","338556","pb28mlq07mx","smaller","otter","I think the purpose of this experiment was to see if we could get the smaller image even if the subject was objectively bigger in our minds.","No","<p>Correct!</p>","null","","","","","","",""
"","null","html-keyboard-response","330","2.0.0","339558","pb28mlq07mx","smaller","otter","I think the purpose of this experiment was to see if we could get the smaller image even if the subject was objectively bigger in our minds.","No","<div style=""font-size:60px;"">+</div>","null","","","","","","",""
"","969","image-keyboard-response","331","2.0.0","340538","pb28mlq07mx","smaller","otter","I think the purpose of this experiment was to see if we could get the smaller image even if the subject was objectively bigger in our minds.","No","stimuli/29-Congruent.jpg","m","","","","","right","m","true"
"","null","html-keyboard-response","332","2.0.0","341441","pb28mlq07mx","smaller","otter","I think the purpose of this experiment was to see if we could get the smaller image even if the subject was objectively bigger in our minds.","No","<p>Correct!</p>","null","","","","","","",""
