"success","rt","trial_type","trial_index","plugin_version","time_elapsed","random_id","condition","participant","participant_thoughts","participant_difficulties","stimulus","response","timeout","failed_images","failed_audio","failed_video","correct_response","correct_response_key","correct"
"true","1033","fullscreen","0","null","2038","pcsplmypgbo","bigger","cheetah","Something about trying to see if our knowledge of the object affects our task?","no","","","","","","","","",""
"","1248","html-keyboard-response","1","2.0.0","3288","pcsplmypgbo","bigger","cheetah","Something about trying to see if our knowledge of the object affects our task?","no","Welcome to the Size Stroop experiment. Press any key to begin."," ","","","","","","",""
"","null","html-keyboard-response","2","2.0.0","4292","pcsplmypgbo","bigger","cheetah","Something about trying to see if our knowledge of the object affects our task?","no","This trial will be in fullscreen mode.","null","","","","","","",""
"","4384","survey-text","3","2.0.0","8681","pcsplmypgbo","bigger","cheetah","Something about trying to see if our knowledge of the object affects our task?","no","","{""participant_id"":""cheetah""}","","","","","","",""
"","10877","html-keyboard-response","4","2.0.0","19560","pcsplmypgbo","bigger","cheetah","Something about trying to see if our knowledge of the object affects our task?","no","<p>In this experiment, two images will appear on the screen. Identify the <strong>larger</strong> images.</p>
              <p>If the image on the left is larger, press ""z"". If the image on the right is larger, press ""m"".</p>
              <p>Press any key to begin.</p>"," ","","","","","","",""
"true","","preload","5","2.0.0","20153","pcsplmypgbo","bigger","cheetah","Something about trying to see if our knowledge of the object affects our task?","no","","","false","[]","[]","[]","","",""
"","null","html-keyboard-response","6","2.0.0","21154","pcsplmypgbo","bigger","cheetah","Something about trying to see if our knowledge of the object affects our task?","no","<div style=""font-size:60px;"">+</div>","null","","","","","","",""
"","1312","image-keyboard-response","7","2.0.0","22472","pcsplmypgbo","bigger","cheetah","Something about trying to see if our knowledge of the object affects our task?","no","stimuli/36-Inongruent.jpg","m","","","","","right","m","true"
"","null","html-keyboard-response","8","2.0.0","23376","pcsplmypgbo","bigger","cheetah","Something about trying to see if our knowledge of the object affects our task?","no","<p>Correct!</p>","null","","","","","","",""
"","null","html-keyboard-response","9","2.0.0","24379","pcsplmypgbo","bigger","cheetah","Something about trying to see if our knowledge of the object affects our task?","no","<div style=""font-size:60px;"">+</div>","null","","","","","","",""
"","878","image-keyboard-response","10","2.0.0","25260","pcsplmypgbo","bigger","cheetah","Something about trying to see if our knowledge of the object affects our task?","no","stimuli/8-Congruent.jpg","z","","","","","left","z","true"
"","null","html-keyboard-response","11","2.0.0","26163","pcsplmypgbo","bigger","cheetah","Something about trying to see if our knowledge of the object affects our task?","no","<p>Correct!</p>","null","","","","","","",""
"","null","html-keyboard-response","12","2.0.0","27166","pcsplmypgbo","bigger","cheetah","Something about trying to see if our knowledge of the object affects our task?","no","<div style=""font-size:60px;"">+</div>","null","","","","","","",""
"","792","image-keyboard-response","13","2.0.0","27961","pcsplmypgbo","bigger","cheetah","Something about trying to see if our knowledge of the object affects our task?","no","stimuli/17-Congruent.jpg","z","","","","","left","z","true"
"","null","html-keyboard-response","14","2.0.0","28864","pcsplmypgbo","bigger","cheetah","Something about trying to see if our knowledge of the object affects our task?","no","<p>Correct!</p>","null","","","","","","",""
"","null","html-keyboard-response","15","2.0.0","29867","pcsplmypgbo","bigger","cheetah","Something about trying to see if our knowledge of the object affects our task?","no","<div style=""font-size:60px;"">+</div>","null","","","","","","",""
"","478","image-keyboard-response","16","2.0.0","30347","pcsplmypgbo","bigger","cheetah","Something about trying to see if our knowledge of the object affects our task?","no","stimuli/5-Inongruent.jpg","m","","","","","right","m","true"
"","null","html-keyboard-response","17","2.0.0","31249","pcsplmypgbo","bigger","cheetah","Something about trying to see if our knowledge of the object affects our task?","no","<p>Correct!</p>","null","","","","","","",""
"","null","html-keyboard-response","18","2.0.0","32252","pcsplmypgbo","bigger","cheetah","Something about trying to see if our knowledge of the object affects our task?","no","<div style=""font-size:60px;"">+</div>","null","","","","","","",""
"","415","image-keyboard-response","19","2.0.0","32670","pcsplmypgbo","bigger","cheetah","Something about trying to see if our knowledge of the object affects our task?","no","stimuli/4-Inongruent.jpg","m","","","","","right","m","true"
"","null","html-keyboard-response","20","2.0.0","33572","pcsplmypgbo","bigger","cheetah","Something about trying to see if our knowledge of the object affects our task?","no","<p>Correct!</p>","null","","","","","","",""
"","null","html-keyboard-response","21","2.0.0","34574","pcsplmypgbo","bigger","cheetah","Something about trying to see if our knowledge of the object affects our task?","no","<div style=""font-size:60px;"">+</div>","null","","","","","","",""
"","402","image-keyboard-response","22","2.0.0","34979","pcsplmypgbo","bigger","cheetah","Something about trying to see if our knowledge of the object affects our task?","no","stimuli/28-Congruent.jpg","z","","","","","left","z","true"
"","null","html-keyboard-response","23","2.0.0","35881","pcsplmypgbo","bigger","cheetah","Something about trying to see if our knowledge of the object affects our task?","no","<p>Correct!</p>","null","","","","","","",""
"","null","html-keyboard-response","24","2.0.0","36884","pcsplmypgbo","bigger","cheetah","Something about trying to see if our knowledge of the object affects our task?","no","<div style=""font-size:60px;"">+</div>","null","","","","","","",""
"","433","image-keyboard-response","25","2.0.0","37319","pcsplmypgbo","bigger","cheetah","Something about trying to see if our knowledge of the object affects our task?","no","stimuli/6-Congruent.jpg","z","","","","","left","z","true"
"","null","html-keyboard-response","26","2.0.0","38222","pcsplmypgbo","bigger","cheetah","Something about trying to see if our knowledge of the object affects our task?","no","<p>Correct!</p>","null","","","","","","",""
"","null","html-keyboard-response","27","2.0.0","39225","pcsplmypgbo","bigger","cheetah","Something about trying to see if our knowledge of the object affects our task?","no","<div style=""font-size:60px;"">+</div>","null","","","","","","",""
"","503","image-keyboard-response","28","2.0.0","39730","pcsplmypgbo","bigger","cheetah","Something about trying to see if our knowledge of the object affects our task?","no","stimuli/1-Inongruent.jpg","m","","","","","right","m","true"
"","null","html-keyboard-response","29","2.0.0","40633","pcsplmypgbo","bigger","cheetah","Something about trying to see if our knowledge of the object affects our task?","no","<p>Correct!</p>","null","","","","","","",""
"","null","html-keyboard-response","30","2.0.0","41636","pcsplmypgbo","bigger","cheetah","Something about trying to see if our knowledge of the object affects our task?","no","<div style=""font-size:60px;"">+</div>","null","","","","","","",""
"","406","image-keyboard-response","31","2.0.0","42044","pcsplmypgbo","bigger","cheetah","Something about trying to see if our knowledge of the object affects our task?","no","stimuli/2-Congruent.jpg","z","","","","","left","z","true"
"","null","html-keyboard-response","32","2.0.0","42947","pcsplmypgbo","bigger","cheetah","Something about trying to see if our knowledge of the object affects our task?","no","<p>Correct!</p>","null","","","","","","",""
"","null","html-keyboard-response","33","2.0.0","43950","pcsplmypgbo","bigger","cheetah","Something about trying to see if our knowledge of the object affects our task?","no","<div style=""font-size:60px;"">+</div>","null","","","","","","",""
"","445","image-keyboard-response","34","2.0.0","44398","pcsplmypgbo","bigger","cheetah","Something about trying to see if our knowledge of the object affects our task?","no","stimuli/27-Congruent.jpg","z","","","","","left","z","true"
"","null","html-keyboard-response","35","2.0.0","45300","pcsplmypgbo","bigger","cheetah","Something about trying to see if our knowledge of the object affects our task?","no","<p>Correct!</p>","null","","","","","","",""
"","null","html-keyboard-response","36","2.0.0","46304","pcsplmypgbo","bigger","cheetah","Something about trying to see if our knowledge of the object affects our task?","no","<div style=""font-size:60px;"">+</div>","null","","","","","","",""
"","423","image-keyboard-response","37","2.0.0","46729","pcsplmypgbo","bigger","cheetah","Something about trying to see if our knowledge of the object affects our task?","no","stimuli/19-Inongruent.jpg","m","","","","","right","m","true"
"","null","html-keyboard-response","38","2.0.0","47631","pcsplmypgbo","bigger","cheetah","Something about trying to see if our knowledge of the object affects our task?","no","<p>Correct!</p>","null","","","","","","",""
"","null","html-keyboard-response","39","2.0.0","48634","pcsplmypgbo","bigger","cheetah","Something about trying to see if our knowledge of the object affects our task?","no","<div style=""font-size:60px;"">+</div>","null","","","","","","",""
"","399","image-keyboard-response","40","2.0.0","49035","pcsplmypgbo","bigger","cheetah","Something about trying to see if our knowledge of the object affects our task?","no","stimuli/3-Inongruent.jpg","m","","","","","right","m","true"
"","null","html-keyboard-response","41","2.0.0","49937","pcsplmypgbo","bigger","cheetah","Something about trying to see if our knowledge of the object affects our task?","no","<p>Correct!</p>","null","","","","","","",""
"","null","html-keyboard-response","42","2.0.0","50940","pcsplmypgbo","bigger","cheetah","Something about trying to see if our knowledge of the object affects our task?","no","<div style=""font-size:60px;"">+</div>","null","","","","","","",""
"","474","image-keyboard-response","43","2.0.0","51416","pcsplmypgbo","bigger","cheetah","Something about trying to see if our knowledge of the object affects our task?","no","stimuli/36-Congruent.jpg","z","","","","","left","z","true"
"","null","html-keyboard-response","44","2.0.0","52318","pcsplmypgbo","bigger","cheetah","Something about trying to see if our knowledge of the object affects our task?","no","<p>Correct!</p>","null","","","","","","",""
"","null","html-keyboard-response","45","2.0.0","53321","pcsplmypgbo","bigger","cheetah","Something about trying to see if our knowledge of the object affects our task?","no","<div style=""font-size:60px;"">+</div>","null","","","","","","",""
"","468","image-keyboard-response","46","2.0.0","53791","pcsplmypgbo","bigger","cheetah","Something about trying to see if our knowledge of the object affects our task?","no","stimuli/7-Congruent.jpg","z","","","","","left","z","true"
"","null","html-keyboard-response","47","2.0.0","54694","pcsplmypgbo","bigger","cheetah","Something about trying to see if our knowledge of the object affects our task?","no","<p>Correct!</p>","null","","","","","","",""
"","null","html-keyboard-response","48","2.0.0","55697","pcsplmypgbo","bigger","cheetah","Something about trying to see if our knowledge of the object affects our task?","no","<div style=""font-size:60px;"">+</div>","null","","","","","","",""
"","448","image-keyboard-response","49","2.0.0","56147","pcsplmypgbo","bigger","cheetah","Something about trying to see if our knowledge of the object affects our task?","no","stimuli/12-Inongruent.jpg","m","","","","","right","m","true"
"","null","html-keyboard-response","50","2.0.0","57051","pcsplmypgbo","bigger","cheetah","Something about trying to see if our knowledge of the object affects our task?","no","<p>Correct!</p>","null","","","","","","",""
"","null","html-keyboard-response","51","2.0.0","58054","pcsplmypgbo","bigger","cheetah","Something about trying to see if our knowledge of the object affects our task?","no","<div style=""font-size:60px;"">+</div>","null","","","","","","",""
"","385","image-keyboard-response","52","2.0.0","58441","pcsplmypgbo","bigger","cheetah","Something about trying to see if our knowledge of the object affects our task?","no","stimuli/5-Congruent.jpg","z","","","","","left","z","true"
"","null","html-keyboard-response","53","2.0.0","59344","pcsplmypgbo","bigger","cheetah","Something about trying to see if our knowledge of the object affects our task?","no","<p>Correct!</p>","null","","","","","","",""
"","null","html-keyboard-response","54","2.0.0","60346","pcsplmypgbo","bigger","cheetah","Something about trying to see if our knowledge of the object affects our task?","no","<div style=""font-size:60px;"">+</div>","null","","","","","","",""
"","486","image-keyboard-response","55","2.0.0","60835","pcsplmypgbo","bigger","cheetah","Something about trying to see if our knowledge of the object affects our task?","no","stimuli/26-Congruent.jpg","z","","","","","left","z","true"
"","null","html-keyboard-response","56","2.0.0","61737","pcsplmypgbo","bigger","cheetah","Something about trying to see if our knowledge of the object affects our task?","no","<p>Correct!</p>","null","","","","","","",""
"","null","html-keyboard-response","57","2.0.0","62740","pcsplmypgbo","bigger","cheetah","Something about trying to see if our knowledge of the object affects our task?","no","<div style=""font-size:60px;"">+</div>","null","","","","","","",""
"","448","image-keyboard-response","58","2.0.0","63190","pcsplmypgbo","bigger","cheetah","Something about trying to see if our knowledge of the object affects our task?","no","stimuli/15-Congruent.jpg","z","","","","","left","z","true"
"","null","html-keyboard-response","59","2.0.0","64092","pcsplmypgbo","bigger","cheetah","Something about trying to see if our knowledge of the object affects our task?","no","<p>Correct!</p>","null","","","","","","",""
"","null","html-keyboard-response","60","2.0.0","65094","pcsplmypgbo","bigger","cheetah","Something about trying to see if our knowledge of the object affects our task?","no","<div style=""font-size:60px;"">+</div>","null","","","","","","",""
"","435","image-keyboard-response","61","2.0.0","65531","pcsplmypgbo","bigger","cheetah","Something about trying to see if our knowledge of the object affects our task?","no","stimuli/24-Congruent.jpg","z","","","","","left","z","true"
"","null","html-keyboard-response","62","2.0.0","66434","pcsplmypgbo","bigger","cheetah","Something about trying to see if our knowledge of the object affects our task?","no","<p>Correct!</p>","null","","","","","","",""
"","null","html-keyboard-response","63","2.0.0","67437","pcsplmypgbo","bigger","cheetah","Something about trying to see if our knowledge of the object affects our task?","no","<div style=""font-size:60px;"">+</div>","null","","","","","","",""
"","408","image-keyboard-response","64","2.0.0","67847","pcsplmypgbo","bigger","cheetah","Something about trying to see if our knowledge of the object affects our task?","no","stimuli/31-Congruent.jpg","z","","","","","left","z","true"
"","null","html-keyboard-response","65","2.0.0","68749","pcsplmypgbo","bigger","cheetah","Something about trying to see if our knowledge of the object affects our task?","no","<p>Correct!</p>","null","","","","","","",""
"","null","html-keyboard-response","66","2.0.0","69752","pcsplmypgbo","bigger","cheetah","Something about trying to see if our knowledge of the object affects our task?","no","<div style=""font-size:60px;"">+</div>","null","","","","","","",""
"","430","image-keyboard-response","67","2.0.0","70183","pcsplmypgbo","bigger","cheetah","Something about trying to see if our knowledge of the object affects our task?","no","stimuli/13-Congruent.jpg","z","","","","","left","z","true"
"","null","html-keyboard-response","68","2.0.0","71086","pcsplmypgbo","bigger","cheetah","Something about trying to see if our knowledge of the object affects our task?","no","<p>Correct!</p>","null","","","","","","",""
"","null","html-keyboard-response","69","2.0.0","72088","pcsplmypgbo","bigger","cheetah","Something about trying to see if our knowledge of the object affects our task?","no","<div style=""font-size:60px;"">+</div>","null","","","","","","",""
"","420","image-keyboard-response","70","2.0.0","72509","pcsplmypgbo","bigger","cheetah","Something about trying to see if our knowledge of the object affects our task?","no","stimuli/30-Inongruent.jpg","m","","","","","right","m","true"
"","null","html-keyboard-response","71","2.0.0","73412","pcsplmypgbo","bigger","cheetah","Something about trying to see if our knowledge of the object affects our task?","no","<p>Correct!</p>","null","","","","","","",""
"","null","html-keyboard-response","72","2.0.0","74415","pcsplmypgbo","bigger","cheetah","Something about trying to see if our knowledge of the object affects our task?","no","<div style=""font-size:60px;"">+</div>","null","","","","","","",""
"","551","image-keyboard-response","73","2.0.0","74967","pcsplmypgbo","bigger","cheetah","Something about trying to see if our knowledge of the object affects our task?","no","stimuli/26-Inongruent.jpg","m","","","","","right","m","true"
"","null","html-keyboard-response","74","2.0.0","75869","pcsplmypgbo","bigger","cheetah","Something about trying to see if our knowledge of the object affects our task?","no","<p>Correct!</p>","null","","","","","","",""
"","null","html-keyboard-response","75","2.0.0","76873","pcsplmypgbo","bigger","cheetah","Something about trying to see if our knowledge of the object affects our task?","no","<div style=""font-size:60px;"">+</div>","null","","","","","","",""
"","361","image-keyboard-response","76","2.0.0","77236","pcsplmypgbo","bigger","cheetah","Something about trying to see if our knowledge of the object affects our task?","no","stimuli/25-Congruent.jpg","z","","","","","left","z","true"
"","null","html-keyboard-response","77","2.0.0","78138","pcsplmypgbo","bigger","cheetah","Something about trying to see if our knowledge of the object affects our task?","no","<p>Correct!</p>","null","","","","","","",""
"","null","html-keyboard-response","78","2.0.0","79141","pcsplmypgbo","bigger","cheetah","Something about trying to see if our knowledge of the object affects our task?","no","<div style=""font-size:60px;"">+</div>","null","","","","","","",""
"","370","image-keyboard-response","79","2.0.0","79513","pcsplmypgbo","bigger","cheetah","Something about trying to see if our knowledge of the object affects our task?","no","stimuli/18-Congruent.jpg","z","","","","","left","z","true"
"","null","html-keyboard-response","80","2.0.0","80415","pcsplmypgbo","bigger","cheetah","Something about trying to see if our knowledge of the object affects our task?","no","<p>Correct!</p>","null","","","","","","",""
"","null","html-keyboard-response","81","2.0.0","81418","pcsplmypgbo","bigger","cheetah","Something about trying to see if our knowledge of the object affects our task?","no","<div style=""font-size:60px;"">+</div>","null","","","","","","",""
"","359","image-keyboard-response","82","2.0.0","81779","pcsplmypgbo","bigger","cheetah","Something about trying to see if our knowledge of the object affects our task?","no","stimuli/29-Inongruent.jpg","m","","","","","right","m","true"
"","null","html-keyboard-response","83","2.0.0","82681","pcsplmypgbo","bigger","cheetah","Something about trying to see if our knowledge of the object affects our task?","no","<p>Correct!</p>","null","","","","","","",""
"","null","html-keyboard-response","84","2.0.0","83685","pcsplmypgbo","bigger","cheetah","Something about trying to see if our knowledge of the object affects our task?","no","<div style=""font-size:60px;"">+</div>","null","","","","","","",""
"","430","image-keyboard-response","85","2.0.0","84117","pcsplmypgbo","bigger","cheetah","Something about trying to see if our knowledge of the object affects our task?","no","stimuli/4-Inongruent.jpg","m","","","","","right","m","true"
"","null","html-keyboard-response","86","2.0.0","85020","pcsplmypgbo","bigger","cheetah","Something about trying to see if our knowledge of the object affects our task?","no","<p>Correct!</p>","null","","","","","","",""
"","null","html-keyboard-response","87","2.0.0","86023","pcsplmypgbo","bigger","cheetah","Something about trying to see if our knowledge of the object affects our task?","no","<div style=""font-size:60px;"">+</div>","null","","","","","","",""
"","341","image-keyboard-response","88","2.0.0","86366","pcsplmypgbo","bigger","cheetah","Something about trying to see if our knowledge of the object affects our task?","no","stimuli/3-Congruent.jpg","z","","","","","left","z","true"
"","null","html-keyboard-response","89","2.0.0","87268","pcsplmypgbo","bigger","cheetah","Something about trying to see if our knowledge of the object affects our task?","no","<p>Correct!</p>","null","","","","","","",""
"","null","html-keyboard-response","90","2.0.0","88271","pcsplmypgbo","bigger","cheetah","Something about trying to see if our knowledge of the object affects our task?","no","<div style=""font-size:60px;"">+</div>","null","","","","","","",""
"","325","image-keyboard-response","91","2.0.0","88598","pcsplmypgbo","bigger","cheetah","Something about trying to see if our knowledge of the object affects our task?","no","stimuli/1-Inongruent.jpg","m","","","","","right","m","true"
"","null","html-keyboard-response","92","2.0.0","89500","pcsplmypgbo","bigger","cheetah","Something about trying to see if our knowledge of the object affects our task?","no","<p>Correct!</p>","null","","","","","","",""
"","null","html-keyboard-response","93","2.0.0","90504","pcsplmypgbo","bigger","cheetah","Something about trying to see if our knowledge of the object affects our task?","no","<div style=""font-size:60px;"">+</div>","null","","","","","","",""
"","438","image-keyboard-response","94","2.0.0","90943","pcsplmypgbo","bigger","cheetah","Something about trying to see if our knowledge of the object affects our task?","no","stimuli/18-Inongruent.jpg","m","","","","","right","m","true"
"","null","html-keyboard-response","95","2.0.0","91846","pcsplmypgbo","bigger","cheetah","Something about trying to see if our knowledge of the object affects our task?","no","<p>Correct!</p>","null","","","","","","",""
"","null","html-keyboard-response","96","2.0.0","92848","pcsplmypgbo","bigger","cheetah","Something about trying to see if our knowledge of the object affects our task?","no","<div style=""font-size:60px;"">+</div>","null","","","","","","",""
"","427","image-keyboard-response","97","2.0.0","93277","pcsplmypgbo","bigger","cheetah","Something about trying to see if our knowledge of the object affects our task?","no","stimuli/21-Inongruent.jpg","m","","","","","right","m","true"
"","null","html-keyboard-response","98","2.0.0","94179","pcsplmypgbo","bigger","cheetah","Something about trying to see if our knowledge of the object affects our task?","no","<p>Correct!</p>","null","","","","","","",""
"","null","html-keyboard-response","99","2.0.0","95182","pcsplmypgbo","bigger","cheetah","Something about trying to see if our knowledge of the object affects our task?","no","<div style=""font-size:60px;"">+</div>","null","","","","","","",""
"","378","image-keyboard-response","100","2.0.0","95562","pcsplmypgbo","bigger","cheetah","Something about trying to see if our knowledge of the object affects our task?","no","stimuli/28-Congruent.jpg","z","","","","","left","z","true"
"","null","html-keyboard-response","101","2.0.0","96465","pcsplmypgbo","bigger","cheetah","Something about trying to see if our knowledge of the object affects our task?","no","<p>Correct!</p>","null","","","","","","",""
"","null","html-keyboard-response","102","2.0.0","97468","pcsplmypgbo","bigger","cheetah","Something about trying to see if our knowledge of the object affects our task?","no","<div style=""font-size:60px;"">+</div>","null","","","","","","",""
"","390","image-keyboard-response","103","2.0.0","97861","pcsplmypgbo","bigger","cheetah","Something about trying to see if our knowledge of the object affects our task?","no","stimuli/34-Congruent.jpg","z","","","","","left","z","true"
"","null","html-keyboard-response","104","2.0.0","98764","pcsplmypgbo","bigger","cheetah","Something about trying to see if our knowledge of the object affects our task?","no","<p>Correct!</p>","null","","","","","","",""
"","null","html-keyboard-response","105","2.0.0","99766","pcsplmypgbo","bigger","cheetah","Something about trying to see if our knowledge of the object affects our task?","no","<div style=""font-size:60px;"">+</div>","null","","","","","","",""
"","406","image-keyboard-response","106","2.0.0","100175","pcsplmypgbo","bigger","cheetah","Something about trying to see if our knowledge of the object affects our task?","no","stimuli/25-Inongruent.jpg","m","","","","","right","m","true"
"","null","html-keyboard-response","107","2.0.0","101077","pcsplmypgbo","bigger","cheetah","Something about trying to see if our knowledge of the object affects our task?","no","<p>Correct!</p>","null","","","","","","",""
"","null","html-keyboard-response","108","2.0.0","102080","pcsplmypgbo","bigger","cheetah","Something about trying to see if our knowledge of the object affects our task?","no","<div style=""font-size:60px;"">+</div>","null","","","","","","",""
"","420","image-keyboard-response","109","2.0.0","102502","pcsplmypgbo","bigger","cheetah","Something about trying to see if our knowledge of the object affects our task?","no","stimuli/33-Congruent.jpg","z","","","","","left","z","true"
"","null","html-keyboard-response","110","2.0.0","103405","pcsplmypgbo","bigger","cheetah","Something about trying to see if our knowledge of the object affects our task?","no","<p>Correct!</p>","null","","","","","","",""
"","null","html-keyboard-response","111","2.0.0","104408","pcsplmypgbo","bigger","cheetah","Something about trying to see if our knowledge of the object affects our task?","no","<div style=""font-size:60px;"">+</div>","null","","","","","","",""
"","491","image-keyboard-response","112","2.0.0","104901","pcsplmypgbo","bigger","cheetah","Something about trying to see if our knowledge of the object affects our task?","no","stimuli/35-Inongruent.jpg","m","","","","","right","m","true"
"","null","html-keyboard-response","113","2.0.0","105803","pcsplmypgbo","bigger","cheetah","Something about trying to see if our knowledge of the object affects our task?","no","<p>Correct!</p>","null","","","","","","",""
"","null","html-keyboard-response","114","2.0.0","106806","pcsplmypgbo","bigger","cheetah","Something about trying to see if our knowledge of the object affects our task?","no","<div style=""font-size:60px;"">+</div>","null","","","","","","",""
"","387","image-keyboard-response","115","2.0.0","107196","pcsplmypgbo","bigger","cheetah","Something about trying to see if our knowledge of the object affects our task?","no","stimuli/34-Inongruent.jpg","m","","","","","right","m","true"
"","null","html-keyboard-response","116","2.0.0","108098","pcsplmypgbo","bigger","cheetah","Something about trying to see if our knowledge of the object affects our task?","no","<p>Correct!</p>","null","","","","","","",""
"","null","html-keyboard-response","117","2.0.0","109101","pcsplmypgbo","bigger","cheetah","Something about trying to see if our knowledge of the object affects our task?","no","<div style=""font-size:60px;"">+</div>","null","","","","","","",""
"","412","image-keyboard-response","118","2.0.0","109515","pcsplmypgbo","bigger","cheetah","Something about trying to see if our knowledge of the object affects our task?","no","stimuli/36-Inongruent.jpg","m","","","","","right","m","true"
"","null","html-keyboard-response","119","2.0.0","110418","pcsplmypgbo","bigger","cheetah","Something about trying to see if our knowledge of the object affects our task?","no","<p>Correct!</p>","null","","","","","","",""
"","null","html-keyboard-response","120","2.0.0","111421","pcsplmypgbo","bigger","cheetah","Something about trying to see if our knowledge of the object affects our task?","no","<div style=""font-size:60px;"">+</div>","null","","","","","","",""
"","407","image-keyboard-response","121","2.0.0","111830","pcsplmypgbo","bigger","cheetah","Something about trying to see if our knowledge of the object affects our task?","no","stimuli/14-Congruent.jpg","z","","","","","left","z","true"
"","null","html-keyboard-response","122","2.0.0","112733","pcsplmypgbo","bigger","cheetah","Something about trying to see if our knowledge of the object affects our task?","no","<p>Correct!</p>","null","","","","","","",""
"","null","html-keyboard-response","123","2.0.0","113735","pcsplmypgbo","bigger","cheetah","Something about trying to see if our knowledge of the object affects our task?","no","<div style=""font-size:60px;"">+</div>","null","","","","","","",""
"","380","image-keyboard-response","124","2.0.0","114117","pcsplmypgbo","bigger","cheetah","Something about trying to see if our knowledge of the object affects our task?","no","stimuli/16-Inongruent.jpg","m","","","","","right","m","true"
"","null","html-keyboard-response","125","2.0.0","115018","pcsplmypgbo","bigger","cheetah","Something about trying to see if our knowledge of the object affects our task?","no","<p>Correct!</p>","null","","","","","","",""
"","null","html-keyboard-response","126","2.0.0","116021","pcsplmypgbo","bigger","cheetah","Something about trying to see if our knowledge of the object affects our task?","no","<div style=""font-size:60px;"">+</div>","null","","","","","","",""
"","394","image-keyboard-response","127","2.0.0","116417","pcsplmypgbo","bigger","cheetah","Something about trying to see if our knowledge of the object affects our task?","no","stimuli/8-Inongruent.jpg","m","","","","","right","m","true"
"","null","html-keyboard-response","128","2.0.0","117319","pcsplmypgbo","bigger","cheetah","Something about trying to see if our knowledge of the object affects our task?","no","<p>Correct!</p>","null","","","","","","",""
"","null","html-keyboard-response","129","2.0.0","118322","pcsplmypgbo","bigger","cheetah","Something about trying to see if our knowledge of the object affects our task?","no","<div style=""font-size:60px;"">+</div>","null","","","","","","",""
"","437","image-keyboard-response","130","2.0.0","118761","pcsplmypgbo","bigger","cheetah","Something about trying to see if our knowledge of the object affects our task?","no","stimuli/7-Inongruent.jpg","m","","","","","right","m","true"
"","null","html-keyboard-response","131","2.0.0","119663","pcsplmypgbo","bigger","cheetah","Something about trying to see if our knowledge of the object affects our task?","no","<p>Correct!</p>","null","","","","","","",""
"","null","html-keyboard-response","132","2.0.0","120666","pcsplmypgbo","bigger","cheetah","Something about trying to see if our knowledge of the object affects our task?","no","<div style=""font-size:60px;"">+</div>","null","","","","","","",""
"","435","image-keyboard-response","133","2.0.0","121103","pcsplmypgbo","bigger","cheetah","Something about trying to see if our knowledge of the object affects our task?","no","stimuli/8-Congruent.jpg","z","","","","","left","z","true"
"","null","html-keyboard-response","134","2.0.0","122005","pcsplmypgbo","bigger","cheetah","Something about trying to see if our knowledge of the object affects our task?","no","<p>Correct!</p>","null","","","","","","",""
"","null","html-keyboard-response","135","2.0.0","123008","pcsplmypgbo","bigger","cheetah","Something about trying to see if our knowledge of the object affects our task?","no","<div style=""font-size:60px;"">+</div>","null","","","","","","",""
"","650","image-keyboard-response","136","2.0.0","123661","pcsplmypgbo","bigger","cheetah","Something about trying to see if our knowledge of the object affects our task?","no","stimuli/9-Inongruent.jpg","m","","","","","right","m","true"
"","null","html-keyboard-response","137","2.0.0","124563","pcsplmypgbo","bigger","cheetah","Something about trying to see if our knowledge of the object affects our task?","no","<p>Correct!</p>","null","","","","","","",""
"","null","html-keyboard-response","138","2.0.0","125566","pcsplmypgbo","bigger","cheetah","Something about trying to see if our knowledge of the object affects our task?","no","<div style=""font-size:60px;"">+</div>","null","","","","","","",""
"","428","image-keyboard-response","139","2.0.0","125996","pcsplmypgbo","bigger","cheetah","Something about trying to see if our knowledge of the object affects our task?","no","stimuli/27-Inongruent.jpg","m","","","","","right","m","true"
"","null","html-keyboard-response","140","2.0.0","126899","pcsplmypgbo","bigger","cheetah","Something about trying to see if our knowledge of the object affects our task?","no","<p>Correct!</p>","null","","","","","","",""
"","null","html-keyboard-response","141","2.0.0","127901","pcsplmypgbo","bigger","cheetah","Something about trying to see if our knowledge of the object affects our task?","no","<div style=""font-size:60px;"">+</div>","null","","","","","","",""
"","431","image-keyboard-response","142","2.0.0","128334","pcsplmypgbo","bigger","cheetah","Something about trying to see if our knowledge of the object affects our task?","no","stimuli/3-Congruent.jpg","z","","","","","left","z","true"
"","null","html-keyboard-response","143","2.0.0","129236","pcsplmypgbo","bigger","cheetah","Something about trying to see if our knowledge of the object affects our task?","no","<p>Correct!</p>","null","","","","","","",""
"","null","html-keyboard-response","144","2.0.0","130240","pcsplmypgbo","bigger","cheetah","Something about trying to see if our knowledge of the object affects our task?","no","<div style=""font-size:60px;"">+</div>","null","","","","","","",""
"","425","image-keyboard-response","145","2.0.0","130667","pcsplmypgbo","bigger","cheetah","Something about trying to see if our knowledge of the object affects our task?","no","stimuli/2-Inongruent.jpg","m","","","","","right","m","true"
"","null","html-keyboard-response","146","2.0.0","131569","pcsplmypgbo","bigger","cheetah","Something about trying to see if our knowledge of the object affects our task?","no","<p>Correct!</p>","null","","","","","","",""
"","null","html-keyboard-response","147","2.0.0","132572","pcsplmypgbo","bigger","cheetah","Something about trying to see if our knowledge of the object affects our task?","no","<div style=""font-size:60px;"">+</div>","null","","","","","","",""
"","440","image-keyboard-response","148","2.0.0","133015","pcsplmypgbo","bigger","cheetah","Something about trying to see if our knowledge of the object affects our task?","no","stimuli/12-Congruent.jpg","z","","","","","left","z","true"
"","null","html-keyboard-response","149","2.0.0","133918","pcsplmypgbo","bigger","cheetah","Something about trying to see if our knowledge of the object affects our task?","no","<p>Correct!</p>","null","","","","","","",""
"","null","html-keyboard-response","150","2.0.0","134921","pcsplmypgbo","bigger","cheetah","Something about trying to see if our knowledge of the object affects our task?","no","<div style=""font-size:60px;"">+</div>","null","","","","","","",""
"","562","image-keyboard-response","151","2.0.0","135485","pcsplmypgbo","bigger","cheetah","Something about trying to see if our knowledge of the object affects our task?","no","stimuli/6-Congruent.jpg","z","","","","","left","z","true"
"","null","html-keyboard-response","152","2.0.0","136388","pcsplmypgbo","bigger","cheetah","Something about trying to see if our knowledge of the object affects our task?","no","<p>Correct!</p>","null","","","","","","",""
"","null","html-keyboard-response","153","2.0.0","137391","pcsplmypgbo","bigger","cheetah","Something about trying to see if our knowledge of the object affects our task?","no","<div style=""font-size:60px;"">+</div>","null","","","","","","",""
"","392","image-keyboard-response","154","2.0.0","137785","pcsplmypgbo","bigger","cheetah","Something about trying to see if our knowledge of the object affects our task?","no","stimuli/5-Inongruent.jpg","m","","","","","right","m","true"
"","null","html-keyboard-response","155","2.0.0","138687","pcsplmypgbo","bigger","cheetah","Something about trying to see if our knowledge of the object affects our task?","no","<p>Correct!</p>","null","","","","","","",""
"","null","html-keyboard-response","156","2.0.0","139690","pcsplmypgbo","bigger","cheetah","Something about trying to see if our knowledge of the object affects our task?","no","<div style=""font-size:60px;"">+</div>","null","","","","","","",""
"","460","image-keyboard-response","157","2.0.0","140152","pcsplmypgbo","bigger","cheetah","Something about trying to see if our knowledge of the object affects our task?","no","stimuli/13-Inongruent.jpg","m","","","","","right","m","true"
"","null","html-keyboard-response","158","2.0.0","141055","pcsplmypgbo","bigger","cheetah","Something about trying to see if our knowledge of the object affects our task?","no","<p>Correct!</p>","null","","","","","","",""
"","null","html-keyboard-response","159","2.0.0","142058","pcsplmypgbo","bigger","cheetah","Something about trying to see if our knowledge of the object affects our task?","no","<div style=""font-size:60px;"">+</div>","null","","","","","","",""
"","389","image-keyboard-response","160","2.0.0","142450","pcsplmypgbo","bigger","cheetah","Something about trying to see if our knowledge of the object affects our task?","no","stimuli/10-Congruent.jpg","z","","","","","left","z","true"
"","null","html-keyboard-response","161","2.0.0","143351","pcsplmypgbo","bigger","cheetah","Something about trying to see if our knowledge of the object affects our task?","no","<p>Correct!</p>","null","","","","","","",""
"","null","html-keyboard-response","162","2.0.0","144354","pcsplmypgbo","bigger","cheetah","Something about trying to see if our knowledge of the object affects our task?","no","<div style=""font-size:60px;"">+</div>","null","","","","","","",""
"","430","image-keyboard-response","163","2.0.0","144786","pcsplmypgbo","bigger","cheetah","Something about trying to see if our knowledge of the object affects our task?","no","stimuli/20-Congruent.jpg","z","","","","","left","z","true"
"","null","html-keyboard-response","164","2.0.0","145689","pcsplmypgbo","bigger","cheetah","Something about trying to see if our knowledge of the object affects our task?","no","<p>Correct!</p>","null","","","","","","",""
"","null","html-keyboard-response","165","2.0.0","146691","pcsplmypgbo","bigger","cheetah","Something about trying to see if our knowledge of the object affects our task?","no","<div style=""font-size:60px;"">+</div>","null","","","","","","",""
"","526","image-keyboard-response","166","2.0.0","147219","pcsplmypgbo","bigger","cheetah","Something about trying to see if our knowledge of the object affects our task?","no","stimuli/4-Congruent.jpg","z","","","","","left","z","true"
"","null","html-keyboard-response","167","2.0.0","148121","pcsplmypgbo","bigger","cheetah","Something about trying to see if our knowledge of the object affects our task?","no","<p>Correct!</p>","null","","","","","","",""
"","null","html-keyboard-response","168","2.0.0","149124","pcsplmypgbo","bigger","cheetah","Something about trying to see if our knowledge of the object affects our task?","no","<div style=""font-size:60px;"">+</div>","null","","","","","","",""
"","489","image-keyboard-response","169","2.0.0","149614","pcsplmypgbo","bigger","cheetah","Something about trying to see if our knowledge of the object affects our task?","no","stimuli/21-Congruent.jpg","z","","","","","left","z","true"
"","null","html-keyboard-response","170","2.0.0","150516","pcsplmypgbo","bigger","cheetah","Something about trying to see if our knowledge of the object affects our task?","no","<p>Correct!</p>","null","","","","","","",""
"","null","html-keyboard-response","171","2.0.0","151519","pcsplmypgbo","bigger","cheetah","Something about trying to see if our knowledge of the object affects our task?","no","<div style=""font-size:60px;"">+</div>","null","","","","","","",""
"","485","image-keyboard-response","172","2.0.0","152006","pcsplmypgbo","bigger","cheetah","Something about trying to see if our knowledge of the object affects our task?","no","stimuli/20-Inongruent.jpg","m","","","","","right","m","true"
"","null","html-keyboard-response","173","2.0.0","152909","pcsplmypgbo","bigger","cheetah","Something about trying to see if our knowledge of the object affects our task?","no","<p>Correct!</p>","null","","","","","","",""
"","null","html-keyboard-response","174","2.0.0","153912","pcsplmypgbo","bigger","cheetah","Something about trying to see if our knowledge of the object affects our task?","no","<div style=""font-size:60px;"">+</div>","null","","","","","","",""
"","531","image-keyboard-response","175","2.0.0","154445","pcsplmypgbo","bigger","cheetah","Something about trying to see if our knowledge of the object affects our task?","no","stimuli/14-Inongruent.jpg","m","","","","","right","m","true"
"","null","html-keyboard-response","176","2.0.0","155347","pcsplmypgbo","bigger","cheetah","Something about trying to see if our knowledge of the object affects our task?","no","<p>Correct!</p>","null","","","","","","",""
"","null","html-keyboard-response","177","2.0.0","156350","pcsplmypgbo","bigger","cheetah","Something about trying to see if our knowledge of the object affects our task?","no","<div style=""font-size:60px;"">+</div>","null","","","","","","",""
"","468","image-keyboard-response","178","2.0.0","156819","pcsplmypgbo","bigger","cheetah","Something about trying to see if our knowledge of the object affects our task?","no","stimuli/11-Inongruent.jpg","m","","","","","right","m","true"
"","null","html-keyboard-response","179","2.0.0","157722","pcsplmypgbo","bigger","cheetah","Something about trying to see if our knowledge of the object affects our task?","no","<p>Correct!</p>","null","","","","","","",""
"","null","html-keyboard-response","180","2.0.0","158724","pcsplmypgbo","bigger","cheetah","Something about trying to see if our knowledge of the object affects our task?","no","<div style=""font-size:60px;"">+</div>","null","","","","","","",""
"","418","image-keyboard-response","181","2.0.0","159145","pcsplmypgbo","bigger","cheetah","Something about trying to see if our knowledge of the object affects our task?","no","stimuli/33-Congruent.jpg","z","","","","","left","z","true"
"","null","html-keyboard-response","182","2.0.0","160046","pcsplmypgbo","bigger","cheetah","Something about trying to see if our knowledge of the object affects our task?","no","<p>Correct!</p>","null","","","","","","",""
"","null","html-keyboard-response","183","2.0.0","161049","pcsplmypgbo","bigger","cheetah","Something about trying to see if our knowledge of the object affects our task?","no","<div style=""font-size:60px;"">+</div>","null","","","","","","",""
"","416","image-keyboard-response","184","2.0.0","161467","pcsplmypgbo","bigger","cheetah","Something about trying to see if our knowledge of the object affects our task?","no","stimuli/32-Congruent.jpg","z","","","","","left","z","true"
"","null","html-keyboard-response","185","2.0.0","162369","pcsplmypgbo","bigger","cheetah","Something about trying to see if our knowledge of the object affects our task?","no","<p>Correct!</p>","null","","","","","","",""
"","null","html-keyboard-response","186","2.0.0","163371","pcsplmypgbo","bigger","cheetah","Something about trying to see if our knowledge of the object affects our task?","no","<div style=""font-size:60px;"">+</div>","null","","","","","","",""
"","378","image-keyboard-response","187","2.0.0","163751","pcsplmypgbo","bigger","cheetah","Something about trying to see if our knowledge of the object affects our task?","no","stimuli/15-Inongruent.jpg","m","","","","","right","m","true"
"","null","html-keyboard-response","188","2.0.0","164654","pcsplmypgbo","bigger","cheetah","Something about trying to see if our knowledge of the object affects our task?","no","<p>Correct!</p>","null","","","","","","",""
"","null","html-keyboard-response","189","2.0.0","165657","pcsplmypgbo","bigger","cheetah","Something about trying to see if our knowledge of the object affects our task?","no","<div style=""font-size:60px;"">+</div>","null","","","","","","",""
"","388","image-keyboard-response","190","2.0.0","166046","pcsplmypgbo","bigger","cheetah","Something about trying to see if our knowledge of the object affects our task?","no","stimuli/7-Congruent.jpg","z","","","","","left","z","true"
"","null","html-keyboard-response","191","2.0.0","166950","pcsplmypgbo","bigger","cheetah","Something about trying to see if our knowledge of the object affects our task?","no","<p>Correct!</p>","null","","","","","","",""
"","null","html-keyboard-response","192","2.0.0","167952","pcsplmypgbo","bigger","cheetah","Something about trying to see if our knowledge of the object affects our task?","no","<div style=""font-size:60px;"">+</div>","null","","","","","","",""
"","397","image-keyboard-response","193","2.0.0","168352","pcsplmypgbo","bigger","cheetah","Something about trying to see if our knowledge of the object affects our task?","no","stimuli/26-Inongruent.jpg","m","","","","","right","m","true"
"","null","html-keyboard-response","194","2.0.0","169254","pcsplmypgbo","bigger","cheetah","Something about trying to see if our knowledge of the object affects our task?","no","<p>Correct!</p>","null","","","","","","",""
"","null","html-keyboard-response","195","2.0.0","170257","pcsplmypgbo","bigger","cheetah","Something about trying to see if our knowledge of the object affects our task?","no","<div style=""font-size:60px;"">+</div>","null","","","","","","",""
"","377","image-keyboard-response","196","2.0.0","170636","pcsplmypgbo","bigger","cheetah","Something about trying to see if our knowledge of the object affects our task?","no","stimuli/35-Congruent.jpg","z","","","","","left","z","true"
"","null","html-keyboard-response","197","2.0.0","171538","pcsplmypgbo","bigger","cheetah","Something about trying to see if our knowledge of the object affects our task?","no","<p>Correct!</p>","null","","","","","","",""
"","null","html-keyboard-response","198","2.0.0","172541","pcsplmypgbo","bigger","cheetah","Something about trying to see if our knowledge of the object affects our task?","no","<div style=""font-size:60px;"">+</div>","null","","","","","","",""
"","566","image-keyboard-response","199","2.0.0","173108","pcsplmypgbo","bigger","cheetah","Something about trying to see if our knowledge of the object affects our task?","no","stimuli/1-Congruent.jpg","z","","","","","left","z","true"
"","null","html-keyboard-response","200","2.0.0","174011","pcsplmypgbo","bigger","cheetah","Something about trying to see if our knowledge of the object affects our task?","no","<p>Correct!</p>","null","","","","","","",""
"","null","html-keyboard-response","201","2.0.0","175013","pcsplmypgbo","bigger","cheetah","Something about trying to see if our knowledge of the object affects our task?","no","<div style=""font-size:60px;"">+</div>","null","","","","","","",""
"","403","image-keyboard-response","202","2.0.0","175418","pcsplmypgbo","bigger","cheetah","Something about trying to see if our knowledge of the object affects our task?","no","stimuli/7-Inongruent.jpg","m","","","","","right","m","true"
"","null","html-keyboard-response","203","2.0.0","176321","pcsplmypgbo","bigger","cheetah","Something about trying to see if our knowledge of the object affects our task?","no","<p>Correct!</p>","null","","","","","","",""
"","null","html-keyboard-response","204","2.0.0","177323","pcsplmypgbo","bigger","cheetah","Something about trying to see if our knowledge of the object affects our task?","no","<div style=""font-size:60px;"">+</div>","null","","","","","","",""
"","316","image-keyboard-response","205","2.0.0","177641","pcsplmypgbo","bigger","cheetah","Something about trying to see if our knowledge of the object affects our task?","no","stimuli/10-Congruent.jpg","z","","","","","left","z","true"
"","null","html-keyboard-response","206","2.0.0","178544","pcsplmypgbo","bigger","cheetah","Something about trying to see if our knowledge of the object affects our task?","no","<p>Correct!</p>","null","","","","","","",""
"","null","html-keyboard-response","207","2.0.0","179546","pcsplmypgbo","bigger","cheetah","Something about trying to see if our knowledge of the object affects our task?","no","<div style=""font-size:60px;"">+</div>","null","","","","","","",""
"","394","image-keyboard-response","208","2.0.0","179942","pcsplmypgbo","bigger","cheetah","Something about trying to see if our knowledge of the object affects our task?","no","stimuli/12-Congruent.jpg","z","","","","","left","z","true"
"","null","html-keyboard-response","209","2.0.0","180844","pcsplmypgbo","bigger","cheetah","Something about trying to see if our knowledge of the object affects our task?","no","<p>Correct!</p>","null","","","","","","",""
"","null","html-keyboard-response","210","2.0.0","181846","pcsplmypgbo","bigger","cheetah","Something about trying to see if our knowledge of the object affects our task?","no","<div style=""font-size:60px;"">+</div>","null","","","","","","",""
"","408","image-keyboard-response","211","2.0.0","182256","pcsplmypgbo","bigger","cheetah","Something about trying to see if our knowledge of the object affects our task?","no","stimuli/8-Inongruent.jpg","m","","","","","right","m","true"
"","null","html-keyboard-response","212","2.0.0","183159","pcsplmypgbo","bigger","cheetah","Something about trying to see if our knowledge of the object affects our task?","no","<p>Correct!</p>","null","","","","","","",""
"","null","html-keyboard-response","213","2.0.0","184162","pcsplmypgbo","bigger","cheetah","Something about trying to see if our knowledge of the object affects our task?","no","<div style=""font-size:60px;"">+</div>","null","","","","","","",""
"","438","image-keyboard-response","214","2.0.0","184602","pcsplmypgbo","bigger","cheetah","Something about trying to see if our knowledge of the object affects our task?","no","stimuli/22-Inongruent.jpg","m","","","","","right","m","true"
"","null","html-keyboard-response","215","2.0.0","185505","pcsplmypgbo","bigger","cheetah","Something about trying to see if our knowledge of the object affects our task?","no","<p>Correct!</p>","null","","","","","","",""
"","null","html-keyboard-response","216","2.0.0","186507","pcsplmypgbo","bigger","cheetah","Something about trying to see if our knowledge of the object affects our task?","no","<div style=""font-size:60px;"">+</div>","null","","","","","","",""
"","405","image-keyboard-response","217","2.0.0","186914","pcsplmypgbo","bigger","cheetah","Something about trying to see if our knowledge of the object affects our task?","no","stimuli/18-Inongruent.jpg","m","","","","","right","m","true"
"","null","html-keyboard-response","218","2.0.0","187816","pcsplmypgbo","bigger","cheetah","Something about trying to see if our knowledge of the object affects our task?","no","<p>Correct!</p>","null","","","","","","",""
"","null","html-keyboard-response","219","2.0.0","188819","pcsplmypgbo","bigger","cheetah","Something about trying to see if our knowledge of the object affects our task?","no","<div style=""font-size:60px;"">+</div>","null","","","","","","",""
"","405","image-keyboard-response","220","2.0.0","189226","pcsplmypgbo","bigger","cheetah","Something about trying to see if our knowledge of the object affects our task?","no","stimuli/25-Inongruent.jpg","m","","","","","right","m","true"
"","null","html-keyboard-response","221","2.0.0","190129","pcsplmypgbo","bigger","cheetah","Something about trying to see if our knowledge of the object affects our task?","no","<p>Correct!</p>","null","","","","","","",""
"","null","html-keyboard-response","222","2.0.0","191132","pcsplmypgbo","bigger","cheetah","Something about trying to see if our knowledge of the object affects our task?","no","<div style=""font-size:60px;"">+</div>","null","","","","","","",""
"","398","image-keyboard-response","223","2.0.0","191531","pcsplmypgbo","bigger","cheetah","Something about trying to see if our knowledge of the object affects our task?","no","stimuli/6-Inongruent.jpg","m","","","","","right","m","true"
"","null","html-keyboard-response","224","2.0.0","192434","pcsplmypgbo","bigger","cheetah","Something about trying to see if our knowledge of the object affects our task?","no","<p>Correct!</p>","null","","","","","","",""
"","null","html-keyboard-response","225","2.0.0","193436","pcsplmypgbo","bigger","cheetah","Something about trying to see if our knowledge of the object affects our task?","no","<div style=""font-size:60px;"">+</div>","null","","","","","","",""
"","472","image-keyboard-response","226","2.0.0","193910","pcsplmypgbo","bigger","cheetah","Something about trying to see if our knowledge of the object affects our task?","no","stimuli/36-Congruent.jpg","z","","","","","left","z","true"
"","null","html-keyboard-response","227","2.0.0","194813","pcsplmypgbo","bigger","cheetah","Something about trying to see if our knowledge of the object affects our task?","no","<p>Correct!</p>","null","","","","","","",""
"","null","html-keyboard-response","228","2.0.0","195815","pcsplmypgbo","bigger","cheetah","Something about trying to see if our knowledge of the object affects our task?","no","<div style=""font-size:60px;"">+</div>","null","","","","","","",""
"","434","image-keyboard-response","229","2.0.0","196251","pcsplmypgbo","bigger","cheetah","Something about trying to see if our knowledge of the object affects our task?","no","stimuli/31-Inongruent.jpg","m","","","","","right","m","true"
"","null","html-keyboard-response","230","2.0.0","197154","pcsplmypgbo","bigger","cheetah","Something about trying to see if our knowledge of the object affects our task?","no","<p>Correct!</p>","null","","","","","","",""
"","null","html-keyboard-response","231","2.0.0","198156","pcsplmypgbo","bigger","cheetah","Something about trying to see if our knowledge of the object affects our task?","no","<div style=""font-size:60px;"">+</div>","null","","","","","","",""
"","396","image-keyboard-response","232","2.0.0","198554","pcsplmypgbo","bigger","cheetah","Something about trying to see if our knowledge of the object affects our task?","no","stimuli/18-Congruent.jpg","z","","","","","left","z","true"
"","null","html-keyboard-response","233","2.0.0","199457","pcsplmypgbo","bigger","cheetah","Something about trying to see if our knowledge of the object affects our task?","no","<p>Correct!</p>","null","","","","","","",""
"","null","html-keyboard-response","234","2.0.0","200458","pcsplmypgbo","bigger","cheetah","Something about trying to see if our knowledge of the object affects our task?","no","<div style=""font-size:60px;"">+</div>","null","","","","","","",""
"","400","image-keyboard-response","235","2.0.0","200860","pcsplmypgbo","bigger","cheetah","Something about trying to see if our knowledge of the object affects our task?","no","stimuli/6-Inongruent.jpg","m","","","","","right","m","true"
"","null","html-keyboard-response","236","2.0.0","201763","pcsplmypgbo","bigger","cheetah","Something about trying to see if our knowledge of the object affects our task?","no","<p>Correct!</p>","null","","","","","","",""
"","null","html-keyboard-response","237","2.0.0","202765","pcsplmypgbo","bigger","cheetah","Something about trying to see if our knowledge of the object affects our task?","no","<div style=""font-size:60px;"">+</div>","null","","","","","","",""
"","452","image-keyboard-response","238","2.0.0","203219","pcsplmypgbo","bigger","cheetah","Something about trying to see if our knowledge of the object affects our task?","no","stimuli/16-Congruent.jpg","z","","","","","left","z","true"
"","null","html-keyboard-response","239","2.0.0","204121","pcsplmypgbo","bigger","cheetah","Something about trying to see if our knowledge of the object affects our task?","no","<p>Correct!</p>","null","","","","","","",""
"","null","html-keyboard-response","240","2.0.0","205123","pcsplmypgbo","bigger","cheetah","Something about trying to see if our knowledge of the object affects our task?","no","<div style=""font-size:60px;"">+</div>","null","","","","","","",""
"","355","image-keyboard-response","241","2.0.0","205479","pcsplmypgbo","bigger","cheetah","Something about trying to see if our knowledge of the object affects our task?","no","stimuli/34-Inongruent.jpg","m","","","","","right","m","true"
"","null","html-keyboard-response","242","2.0.0","206382","pcsplmypgbo","bigger","cheetah","Something about trying to see if our knowledge of the object affects our task?","no","<p>Correct!</p>","null","","","","","","",""
"","null","html-keyboard-response","243","2.0.0","207384","pcsplmypgbo","bigger","cheetah","Something about trying to see if our knowledge of the object affects our task?","no","<div style=""font-size:60px;"">+</div>","null","","","","","","",""
"","541","image-keyboard-response","244","2.0.0","207927","pcsplmypgbo","bigger","cheetah","Something about trying to see if our knowledge of the object affects our task?","no","stimuli/17-Inongruent.jpg","m","","","","","right","m","true"
"","null","html-keyboard-response","245","2.0.0","208829","pcsplmypgbo","bigger","cheetah","Something about trying to see if our knowledge of the object affects our task?","no","<p>Correct!</p>","null","","","","","","",""
"","null","html-keyboard-response","246","2.0.0","209832","pcsplmypgbo","bigger","cheetah","Something about trying to see if our knowledge of the object affects our task?","no","<div style=""font-size:60px;"">+</div>","null","","","","","","",""
"","390","image-keyboard-response","247","2.0.0","210225","pcsplmypgbo","bigger","cheetah","Something about trying to see if our knowledge of the object affects our task?","no","stimuli/29-Congruent.jpg","z","","","","","left","z","true"
"","null","html-keyboard-response","248","2.0.0","211128","pcsplmypgbo","bigger","cheetah","Something about trying to see if our knowledge of the object affects our task?","no","<p>Correct!</p>","null","","","","","","",""
"","null","html-keyboard-response","249","2.0.0","212131","pcsplmypgbo","bigger","cheetah","Something about trying to see if our knowledge of the object affects our task?","no","<div style=""font-size:60px;"">+</div>","null","","","","","","",""
"","435","image-keyboard-response","250","2.0.0","212568","pcsplmypgbo","bigger","cheetah","Something about trying to see if our knowledge of the object affects our task?","no","stimuli/20-Congruent.jpg","z","","","","","left","z","true"
"","null","html-keyboard-response","251","2.0.0","213471","pcsplmypgbo","bigger","cheetah","Something about trying to see if our knowledge of the object affects our task?","no","<p>Correct!</p>","null","","","","","","",""
"","null","html-keyboard-response","252","2.0.0","214474","pcsplmypgbo","bigger","cheetah","Something about trying to see if our knowledge of the object affects our task?","no","<div style=""font-size:60px;"">+</div>","null","","","","","","",""
"","580","image-keyboard-response","253","2.0.0","215056","pcsplmypgbo","bigger","cheetah","Something about trying to see if our knowledge of the object affects our task?","no","stimuli/11-Congruent.jpg","z","","","","","left","z","true"
"","null","html-keyboard-response","254","2.0.0","215957","pcsplmypgbo","bigger","cheetah","Something about trying to see if our knowledge of the object affects our task?","no","<p>Correct!</p>","null","","","","","","",""
"","null","html-keyboard-response","255","2.0.0","216960","pcsplmypgbo","bigger","cheetah","Something about trying to see if our knowledge of the object affects our task?","no","<div style=""font-size:60px;"">+</div>","null","","","","","","",""
"","423","image-keyboard-response","256","2.0.0","217386","pcsplmypgbo","bigger","cheetah","Something about trying to see if our knowledge of the object affects our task?","no","stimuli/29-Congruent.jpg","z","","","","","left","z","true"
"","null","html-keyboard-response","257","2.0.0","218288","pcsplmypgbo","bigger","cheetah","Something about trying to see if our knowledge of the object affects our task?","no","<p>Correct!</p>","null","","","","","","",""
"","null","html-keyboard-response","258","2.0.0","219291","pcsplmypgbo","bigger","cheetah","Something about trying to see if our knowledge of the object affects our task?","no","<div style=""font-size:60px;"">+</div>","null","","","","","","",""
"","396","image-keyboard-response","259","2.0.0","219689","pcsplmypgbo","bigger","cheetah","Something about trying to see if our knowledge of the object affects our task?","no","stimuli/24-Inongruent.jpg","m","","","","","right","m","true"
"","null","html-keyboard-response","260","2.0.0","220591","pcsplmypgbo","bigger","cheetah","Something about trying to see if our knowledge of the object affects our task?","no","<p>Correct!</p>","null","","","","","","",""
"","null","html-keyboard-response","261","2.0.0","221593","pcsplmypgbo","bigger","cheetah","Something about trying to see if our knowledge of the object affects our task?","no","<div style=""font-size:60px;"">+</div>","null","","","","","","",""
"","359","image-keyboard-response","262","2.0.0","221954","pcsplmypgbo","bigger","cheetah","Something about trying to see if our knowledge of the object affects our task?","no","stimuli/22-Congruent.jpg","z","","","","","left","z","true"
"","null","html-keyboard-response","263","2.0.0","222856","pcsplmypgbo","bigger","cheetah","Something about trying to see if our knowledge of the object affects our task?","no","<p>Correct!</p>","null","","","","","","",""
"","null","html-keyboard-response","264","2.0.0","223858","pcsplmypgbo","bigger","cheetah","Something about trying to see if our knowledge of the object affects our task?","no","<div style=""font-size:60px;"">+</div>","null","","","","","","",""
"","395","image-keyboard-response","265","2.0.0","224256","pcsplmypgbo","bigger","cheetah","Something about trying to see if our knowledge of the object affects our task?","no","stimuli/21-Inongruent.jpg","m","","","","","right","m","true"
"","null","html-keyboard-response","266","2.0.0","225158","pcsplmypgbo","bigger","cheetah","Something about trying to see if our knowledge of the object affects our task?","no","<p>Correct!</p>","null","","","","","","",""
"","null","html-keyboard-response","267","2.0.0","226160","pcsplmypgbo","bigger","cheetah","Something about trying to see if our knowledge of the object affects our task?","no","<div style=""font-size:60px;"">+</div>","null","","","","","","",""
"","397","image-keyboard-response","268","2.0.0","226559","pcsplmypgbo","bigger","cheetah","Something about trying to see if our knowledge of the object affects our task?","no","stimuli/9-Inongruent.jpg","m","","","","","right","m","true"
"","null","html-keyboard-response","269","2.0.0","227462","pcsplmypgbo","bigger","cheetah","Something about trying to see if our knowledge of the object affects our task?","no","<p>Correct!</p>","null","","","","","","",""
"","null","html-keyboard-response","270","2.0.0","228465","pcsplmypgbo","bigger","cheetah","Something about trying to see if our knowledge of the object affects our task?","no","<div style=""font-size:60px;"">+</div>","null","","","","","","",""
"","393","image-keyboard-response","271","2.0.0","228860","pcsplmypgbo","bigger","cheetah","Something about trying to see if our knowledge of the object affects our task?","no","stimuli/27-Inongruent.jpg","m","","","","","right","m","true"
"","null","html-keyboard-response","272","2.0.0","229761","pcsplmypgbo","bigger","cheetah","Something about trying to see if our knowledge of the object affects our task?","no","<p>Correct!</p>","null","","","","","","",""
"","null","html-keyboard-response","273","2.0.0","230764","pcsplmypgbo","bigger","cheetah","Something about trying to see if our knowledge of the object affects our task?","no","<div style=""font-size:60px;"">+</div>","null","","","","","","",""
"","415","image-keyboard-response","274","2.0.0","231181","pcsplmypgbo","bigger","cheetah","Something about trying to see if our knowledge of the object affects our task?","no","stimuli/3-Inongruent.jpg","m","","","","","right","m","true"
"","null","html-keyboard-response","275","2.0.0","232083","pcsplmypgbo","bigger","cheetah","Something about trying to see if our knowledge of the object affects our task?","no","<p>Correct!</p>","null","","","","","","",""
"","null","html-keyboard-response","276","2.0.0","233086","pcsplmypgbo","bigger","cheetah","Something about trying to see if our knowledge of the object affects our task?","no","<div style=""font-size:60px;"">+</div>","null","","","","","","",""
"","446","image-keyboard-response","277","2.0.0","233534","pcsplmypgbo","bigger","cheetah","Something about trying to see if our knowledge of the object affects our task?","no","stimuli/35-Congruent.jpg","z","","","","","left","z","true"
"","null","html-keyboard-response","278","2.0.0","234436","pcsplmypgbo","bigger","cheetah","Something about trying to see if our knowledge of the object affects our task?","no","<p>Correct!</p>","null","","","","","","",""
"","null","html-keyboard-response","279","2.0.0","235439","pcsplmypgbo","bigger","cheetah","Something about trying to see if our knowledge of the object affects our task?","no","<div style=""font-size:60px;"">+</div>","null","","","","","","",""
"","439","image-keyboard-response","280","2.0.0","235881","pcsplmypgbo","bigger","cheetah","Something about trying to see if our knowledge of the object affects our task?","no","stimuli/26-Congruent.jpg","z","","","","","left","z","true"
"","null","html-keyboard-response","281","2.0.0","236783","pcsplmypgbo","bigger","cheetah","Something about trying to see if our knowledge of the object affects our task?","no","<p>Correct!</p>","null","","","","","","",""
"","null","html-keyboard-response","282","2.0.0","237786","pcsplmypgbo","bigger","cheetah","Something about trying to see if our knowledge of the object affects our task?","no","<div style=""font-size:60px;"">+</div>","null","","","","","","",""
"","412","image-keyboard-response","283","2.0.0","238200","pcsplmypgbo","bigger","cheetah","Something about trying to see if our knowledge of the object affects our task?","no","stimuli/9-Congruent.jpg","z","","","","","left","z","true"
"","null","html-keyboard-response","284","2.0.0","239102","pcsplmypgbo","bigger","cheetah","Something about trying to see if our knowledge of the object affects our task?","no","<p>Correct!</p>","null","","","","","","",""
"","null","html-keyboard-response","285","2.0.0","240105","pcsplmypgbo","bigger","cheetah","Something about trying to see if our knowledge of the object affects our task?","no","<div style=""font-size:60px;"">+</div>","null","","","","","","",""
"","423","image-keyboard-response","286","2.0.0","240530","pcsplmypgbo","bigger","cheetah","Something about trying to see if our knowledge of the object affects our task?","no","stimuli/29-Inongruent.jpg","m","","","","","right","m","true"
"","null","html-keyboard-response","287","2.0.0","241432","pcsplmypgbo","bigger","cheetah","Something about trying to see if our knowledge of the object affects our task?","no","<p>Correct!</p>","null","","","","","","",""
"","null","html-keyboard-response","288","2.0.0","242435","pcsplmypgbo","bigger","cheetah","Something about trying to see if our knowledge of the object affects our task?","no","<div style=""font-size:60px;"">+</div>","null","","","","","","",""
"","476","image-keyboard-response","289","2.0.0","242913","pcsplmypgbo","bigger","cheetah","Something about trying to see if our knowledge of the object affects our task?","no","stimuli/13-Inongruent.jpg","m","","","","","right","m","true"
"","null","html-keyboard-response","290","2.0.0","243815","pcsplmypgbo","bigger","cheetah","Something about trying to see if our knowledge of the object affects our task?","no","<p>Correct!</p>","null","","","","","","",""
"","null","html-keyboard-response","291","2.0.0","244818","pcsplmypgbo","bigger","cheetah","Something about trying to see if our knowledge of the object affects our task?","no","<div style=""font-size:60px;"">+</div>","null","","","","","","",""
"","606","image-keyboard-response","292","2.0.0","245426","pcsplmypgbo","bigger","cheetah","Something about trying to see if our knowledge of the object affects our task?","no","stimuli/31-Inongruent.jpg","m","","","","","right","m","true"
"","null","html-keyboard-response","293","2.0.0","246329","pcsplmypgbo","bigger","cheetah","Something about trying to see if our knowledge of the object affects our task?","no","<p>Correct!</p>","null","","","","","","",""
"","null","html-keyboard-response","294","2.0.0","247331","pcsplmypgbo","bigger","cheetah","Something about trying to see if our knowledge of the object affects our task?","no","<div style=""font-size:60px;"">+</div>","null","","","","","","",""
"","471","image-keyboard-response","295","2.0.0","247804","pcsplmypgbo","bigger","cheetah","Something about trying to see if our knowledge of the object affects our task?","no","stimuli/22-Congruent.jpg","z","","","","","left","z","true"
"","null","html-keyboard-response","296","2.0.0","248707","pcsplmypgbo","bigger","cheetah","Something about trying to see if our knowledge of the object affects our task?","no","<p>Correct!</p>","null","","","","","","",""
"","null","html-keyboard-response","297","2.0.0","249709","pcsplmypgbo","bigger","cheetah","Something about trying to see if our knowledge of the object affects our task?","no","<div style=""font-size:60px;"">+</div>","null","","","","","","",""
"","408","image-keyboard-response","298","2.0.0","250119","pcsplmypgbo","bigger","cheetah","Something about trying to see if our knowledge of the object affects our task?","no","stimuli/23-Inongruent.jpg","m","","","","","right","m","true"
"","null","html-keyboard-response","299","2.0.0","251022","pcsplmypgbo","bigger","cheetah","Something about trying to see if our knowledge of the object affects our task?","no","<p>Correct!</p>","null","","","","","","",""
"","null","html-keyboard-response","300","2.0.0","252025","pcsplmypgbo","bigger","cheetah","Something about trying to see if our knowledge of the object affects our task?","no","<div style=""font-size:60px;"">+</div>","null","","","","","","",""
"","445","image-keyboard-response","301","2.0.0","252472","pcsplmypgbo","bigger","cheetah","Something about trying to see if our knowledge of the object affects our task?","no","stimuli/23-Congruent.jpg","z","","","","","left","z","true"
"","null","html-keyboard-response","302","2.0.0","253374","pcsplmypgbo","bigger","cheetah","Something about trying to see if our knowledge of the object affects our task?","no","<p>Correct!</p>","null","","","","","","",""
"","null","html-keyboard-response","303","2.0.0","254377","pcsplmypgbo","bigger","cheetah","Something about trying to see if our knowledge of the object affects our task?","no","<div style=""font-size:60px;"">+</div>","null","","","","","","",""
"","638","image-keyboard-response","304","2.0.0","255018","pcsplmypgbo","bigger","cheetah","Something about trying to see if our knowledge of the object affects our task?","no","stimuli/17-Congruent.jpg","z","","","","","left","z","true"
"","null","html-keyboard-response","305","2.0.0","255920","pcsplmypgbo","bigger","cheetah","Something about trying to see if our knowledge of the object affects our task?","no","<p>Correct!</p>","null","","","","","","",""
"","null","html-keyboard-response","306","2.0.0","256924","pcsplmypgbo","bigger","cheetah","Something about trying to see if our knowledge of the object affects our task?","no","<div style=""font-size:60px;"">+</div>","null","","","","","","",""
"","623","image-keyboard-response","307","2.0.0","257549","pcsplmypgbo","bigger","cheetah","Something about trying to see if our knowledge of the object affects our task?","no","stimuli/32-Inongruent.jpg","m","","","","","right","m","true"
"","null","html-keyboard-response","308","2.0.0","258451","pcsplmypgbo","bigger","cheetah","Something about trying to see if our knowledge of the object affects our task?","no","<p>Correct!</p>","null","","","","","","",""
"","null","html-keyboard-response","309","2.0.0","259454","pcsplmypgbo","bigger","cheetah","Something about trying to see if our knowledge of the object affects our task?","no","<div style=""font-size:60px;"">+</div>","null","","","","","","",""
"","377","image-keyboard-response","310","2.0.0","259833","pcsplmypgbo","bigger","cheetah","Something about trying to see if our knowledge of the object affects our task?","no","stimuli/21-Congruent.jpg","z","","","","","left","z","true"
"","null","html-keyboard-response","311","2.0.0","260735","pcsplmypgbo","bigger","cheetah","Something about trying to see if our knowledge of the object affects our task?","no","<p>Correct!</p>","null","","","","","","",""
"","null","html-keyboard-response","312","2.0.0","261738","pcsplmypgbo","bigger","cheetah","Something about trying to see if our knowledge of the object affects our task?","no","<div style=""font-size:60px;"">+</div>","null","","","","","","",""
"","578","image-keyboard-response","313","2.0.0","262318","pcsplmypgbo","bigger","cheetah","Something about trying to see if our knowledge of the object affects our task?","no","stimuli/10-Inongruent.jpg","m","","","","","right","m","true"
"","null","html-keyboard-response","314","2.0.0","263221","pcsplmypgbo","bigger","cheetah","Something about trying to see if our knowledge of the object affects our task?","no","<p>Correct!</p>","null","","","","","","",""
"","null","html-keyboard-response","315","2.0.0","264223","pcsplmypgbo","bigger","cheetah","Something about trying to see if our knowledge of the object affects our task?","no","<div style=""font-size:60px;"">+</div>","null","","","","","","",""
"","436","image-keyboard-response","316","2.0.0","264661","pcsplmypgbo","bigger","cheetah","Something about trying to see if our knowledge of the object affects our task?","no","stimuli/4-Congruent.jpg","z","","","","","left","z","true"
"","null","html-keyboard-response","317","2.0.0","265564","pcsplmypgbo","bigger","cheetah","Something about trying to see if our knowledge of the object affects our task?","no","<p>Correct!</p>","null","","","","","","",""
"","null","html-keyboard-response","318","2.0.0","266566","pcsplmypgbo","bigger","cheetah","Something about trying to see if our knowledge of the object affects our task?","no","<div style=""font-size:60px;"">+</div>","null","","","","","","",""
"","371","image-keyboard-response","319","2.0.0","266940","pcsplmypgbo","bigger","cheetah","Something about trying to see if our knowledge of the object affects our task?","no","stimuli/10-Inongruent.jpg","m","","","","","right","m","true"
"","null","html-keyboard-response","320","2.0.0","267842","pcsplmypgbo","bigger","cheetah","Something about trying to see if our knowledge of the object affects our task?","no","<p>Correct!</p>","null","","","","","","",""
"","null","html-keyboard-response","321","2.0.0","268845","pcsplmypgbo","bigger","cheetah","Something about trying to see if our knowledge of the object affects our task?","no","<div style=""font-size:60px;"">+</div>","null","","","","","","",""
"","398","image-keyboard-response","322","2.0.0","269245","pcsplmypgbo","bigger","cheetah","Something about trying to see if our knowledge of the object affects our task?","no","stimuli/24-Congruent.jpg","z","","","","","left","z","true"
"","null","html-keyboard-response","323","2.0.0","270147","pcsplmypgbo","bigger","cheetah","Something about trying to see if our knowledge of the object affects our task?","no","<p>Correct!</p>","null","","","","","","",""
"","null","html-keyboard-response","324","2.0.0","271150","pcsplmypgbo","bigger","cheetah","Something about trying to see if our knowledge of the object affects our task?","no","<div style=""font-size:60px;"">+</div>","null","","","","","","",""
"","490","image-keyboard-response","325","2.0.0","271642","pcsplmypgbo","bigger","cheetah","Something about trying to see if our knowledge of the object affects our task?","no","stimuli/11-Congruent.jpg","z","","","","","left","z","true"
"","null","html-keyboard-response","326","2.0.0","272545","pcsplmypgbo","bigger","cheetah","Something about trying to see if our knowledge of the object affects our task?","no","<p>Correct!</p>","null","","","","","","",""
"","null","html-keyboard-response","327","2.0.0","273548","pcsplmypgbo","bigger","cheetah","Something about trying to see if our knowledge of the object affects our task?","no","<div style=""font-size:60px;"">+</div>","null","","","","","","",""
"","489","image-keyboard-response","328","2.0.0","274039","pcsplmypgbo","bigger","cheetah","Something about trying to see if our knowledge of the object affects our task?","no","stimuli/27-Congruent.jpg","z","","","","","left","z","true"
"","null","html-keyboard-response","329","2.0.0","274942","pcsplmypgbo","bigger","cheetah","Something about trying to see if our knowledge of the object affects our task?","no","<p>Correct!</p>","null","","","","","","",""
"","null","html-keyboard-response","330","2.0.0","275945","pcsplmypgbo","bigger","cheetah","Something about trying to see if our knowledge of the object affects our task?","no","<div style=""font-size:60px;"">+</div>","null","","","","","","",""
"","441","image-keyboard-response","331","2.0.0","276387","pcsplmypgbo","bigger","cheetah","Something about trying to see if our knowledge of the object affects our task?","no","stimuli/11-Inongruent.jpg","m","","","","","right","m","true"
"","null","html-keyboard-response","332","2.0.0","277290","pcsplmypgbo","bigger","cheetah","Something about trying to see if our knowledge of the object affects our task?","no","<p>Correct!</p>","null","","","","","","",""
"","null","html-keyboard-response","333","2.0.0","278293","pcsplmypgbo","bigger","cheetah","Something about trying to see if our knowledge of the object affects our task?","no","<div style=""font-size:60px;"">+</div>","null","","","","","","",""
"","384","image-keyboard-response","334","2.0.0","278679","pcsplmypgbo","bigger","cheetah","Something about trying to see if our knowledge of the object affects our task?","no","stimuli/9-Congruent.jpg","z","","","","","left","z","true"
"","null","html-keyboard-response","335","2.0.0","279581","pcsplmypgbo","bigger","cheetah","Something about trying to see if our knowledge of the object affects our task?","no","<p>Correct!</p>","null","","","","","","",""
"","null","html-keyboard-response","336","2.0.0","280584","pcsplmypgbo","bigger","cheetah","Something about trying to see if our knowledge of the object affects our task?","no","<div style=""font-size:60px;"">+</div>","null","","","","","","",""
"","403","image-keyboard-response","337","2.0.0","280989","pcsplmypgbo","bigger","cheetah","Something about trying to see if our knowledge of the object affects our task?","no","stimuli/31-Congruent.jpg","z","","","","","left","z","true"
"","null","html-keyboard-response","338","2.0.0","281891","pcsplmypgbo","bigger","cheetah","Something about trying to see if our knowledge of the object affects our task?","no","<p>Correct!</p>","null","","","","","","",""
"","null","html-keyboard-response","339","2.0.0","282893","pcsplmypgbo","bigger","cheetah","Something about trying to see if our knowledge of the object affects our task?","no","<div style=""font-size:60px;"">+</div>","null","","","","","","",""
"","435","image-keyboard-response","340","2.0.0","283331","pcsplmypgbo","bigger","cheetah","Something about trying to see if our knowledge of the object affects our task?","no","stimuli/14-Congruent.jpg","z","","","","","left","z","true"
"","null","html-keyboard-response","341","2.0.0","284234","pcsplmypgbo","bigger","cheetah","Something about trying to see if our knowledge of the object affects our task?","no","<p>Correct!</p>","null","","","","","","",""
"","null","html-keyboard-response","342","2.0.0","285237","pcsplmypgbo","bigger","cheetah","Something about trying to see if our knowledge of the object affects our task?","no","<div style=""font-size:60px;"">+</div>","null","","","","","","",""
"","444","image-keyboard-response","343","2.0.0","285683","pcsplmypgbo","bigger","cheetah","Something about trying to see if our knowledge of the object affects our task?","no","stimuli/2-Congruent.jpg","z","","","","","left","z","true"
"","null","html-keyboard-response","344","2.0.0","286586","pcsplmypgbo","bigger","cheetah","Something about trying to see if our knowledge of the object affects our task?","no","<p>Correct!</p>","null","","","","","","",""
"","null","html-keyboard-response","345","2.0.0","287588","pcsplmypgbo","bigger","cheetah","Something about trying to see if our knowledge of the object affects our task?","no","<div style=""font-size:60px;"">+</div>","null","","","","","","",""
"","426","image-keyboard-response","346","2.0.0","288016","pcsplmypgbo","bigger","cheetah","Something about trying to see if our knowledge of the object affects our task?","no","stimuli/20-Inongruent.jpg","m","","","","","right","m","true"
"","null","html-keyboard-response","347","2.0.0","288918","pcsplmypgbo","bigger","cheetah","Something about trying to see if our knowledge of the object affects our task?","no","<p>Correct!</p>","null","","","","","","",""
"","null","html-keyboard-response","348","2.0.0","289920","pcsplmypgbo","bigger","cheetah","Something about trying to see if our knowledge of the object affects our task?","no","<div style=""font-size:60px;"">+</div>","null","","","","","","",""
"","428","image-keyboard-response","349","2.0.0","290350","pcsplmypgbo","bigger","cheetah","Something about trying to see if our knowledge of the object affects our task?","no","stimuli/14-Inongruent.jpg","m","","","","","right","m","true"
"","null","html-keyboard-response","350","2.0.0","291253","pcsplmypgbo","bigger","cheetah","Something about trying to see if our knowledge of the object affects our task?","no","<p>Correct!</p>","null","","","","","","",""
"","null","html-keyboard-response","351","2.0.0","292255","pcsplmypgbo","bigger","cheetah","Something about trying to see if our knowledge of the object affects our task?","no","<div style=""font-size:60px;"">+</div>","null","","","","","","",""
"","370","image-keyboard-response","352","2.0.0","292628","pcsplmypgbo","bigger","cheetah","Something about trying to see if our knowledge of the object affects our task?","no","stimuli/34-Congruent.jpg","z","","","","","left","z","true"
"","null","html-keyboard-response","353","2.0.0","293531","pcsplmypgbo","bigger","cheetah","Something about trying to see if our knowledge of the object affects our task?","no","<p>Correct!</p>","null","","","","","","",""
"","null","html-keyboard-response","354","2.0.0","294533","pcsplmypgbo","bigger","cheetah","Something about trying to see if our knowledge of the object affects our task?","no","<div style=""font-size:60px;"">+</div>","null","","","","","","",""
"","408","image-keyboard-response","355","2.0.0","294944","pcsplmypgbo","bigger","cheetah","Something about trying to see if our knowledge of the object affects our task?","no","stimuli/2-Inongruent.jpg","m","","","","","right","m","true"
"","null","html-keyboard-response","356","2.0.0","295846","pcsplmypgbo","bigger","cheetah","Something about trying to see if our knowledge of the object affects our task?","no","<p>Correct!</p>","null","","","","","","",""
"","null","html-keyboard-response","357","2.0.0","296848","pcsplmypgbo","bigger","cheetah","Something about trying to see if our knowledge of the object affects our task?","no","<div style=""font-size:60px;"">+</div>","null","","","","","","",""
"","385","image-keyboard-response","358","2.0.0","297235","pcsplmypgbo","bigger","cheetah","Something about trying to see if our knowledge of the object affects our task?","no","stimuli/33-Inongruent.jpg","m","","","","","right","m","true"
"","null","html-keyboard-response","359","2.0.0","298138","pcsplmypgbo","bigger","cheetah","Something about trying to see if our knowledge of the object affects our task?","no","<p>Correct!</p>","null","","","","","","",""
"","null","html-keyboard-response","360","2.0.0","299140","pcsplmypgbo","bigger","cheetah","Something about trying to see if our knowledge of the object affects our task?","no","<div style=""font-size:60px;"">+</div>","null","","","","","","",""
"","410","image-keyboard-response","361","2.0.0","299552","pcsplmypgbo","bigger","cheetah","Something about trying to see if our knowledge of the object affects our task?","no","stimuli/15-Inongruent.jpg","m","","","","","right","m","true"
"","null","html-keyboard-response","362","2.0.0","300454","pcsplmypgbo","bigger","cheetah","Something about trying to see if our knowledge of the object affects our task?","no","<p>Correct!</p>","null","","","","","","",""
"","null","html-keyboard-response","363","2.0.0","301457","pcsplmypgbo","bigger","cheetah","Something about trying to see if our knowledge of the object affects our task?","no","<div style=""font-size:60px;"">+</div>","null","","","","","","",""
"","490","image-keyboard-response","364","2.0.0","301948","pcsplmypgbo","bigger","cheetah","Something about trying to see if our knowledge of the object affects our task?","no","stimuli/25-Congruent.jpg","z","","","","","left","z","true"
"","null","html-keyboard-response","365","2.0.0","302851","pcsplmypgbo","bigger","cheetah","Something about trying to see if our knowledge of the object affects our task?","no","<p>Correct!</p>","null","","","","","","",""
"","null","html-keyboard-response","366","2.0.0","303854","pcsplmypgbo","bigger","cheetah","Something about trying to see if our knowledge of the object affects our task?","no","<div style=""font-size:60px;"">+</div>","null","","","","","","",""
"","387","image-keyboard-response","367","2.0.0","304243","pcsplmypgbo","bigger","cheetah","Something about trying to see if our knowledge of the object affects our task?","no","stimuli/28-Inongruent.jpg","m","","","","","right","m","true"
"","null","html-keyboard-response","368","2.0.0","305146","pcsplmypgbo","bigger","cheetah","Something about trying to see if our knowledge of the object affects our task?","no","<p>Correct!</p>","null","","","","","","",""
"","null","html-keyboard-response","369","2.0.0","306148","pcsplmypgbo","bigger","cheetah","Something about trying to see if our knowledge of the object affects our task?","no","<div style=""font-size:60px;"">+</div>","null","","","","","","",""
"","407","image-keyboard-response","370","2.0.0","306558","pcsplmypgbo","bigger","cheetah","Something about trying to see if our knowledge of the object affects our task?","no","stimuli/30-Inongruent.jpg","m","","","","","right","m","true"
"","null","html-keyboard-response","371","2.0.0","307460","pcsplmypgbo","bigger","cheetah","Something about trying to see if our knowledge of the object affects our task?","no","<p>Correct!</p>","null","","","","","","",""
"","null","html-keyboard-response","372","2.0.0","308463","pcsplmypgbo","bigger","cheetah","Something about trying to see if our knowledge of the object affects our task?","no","<div style=""font-size:60px;"">+</div>","null","","","","","","",""
"","497","image-keyboard-response","373","2.0.0","308962","pcsplmypgbo","bigger","cheetah","Something about trying to see if our knowledge of the object affects our task?","no","stimuli/30-Congruent.jpg","z","","","","","left","z","true"
"","null","html-keyboard-response","374","2.0.0","309864","pcsplmypgbo","bigger","cheetah","Something about trying to see if our knowledge of the object affects our task?","no","<p>Correct!</p>","null","","","","","","",""
"","null","html-keyboard-response","375","2.0.0","310868","pcsplmypgbo","bigger","cheetah","Something about trying to see if our knowledge of the object affects our task?","no","<div style=""font-size:60px;"">+</div>","null","","","","","","",""
"","402","image-keyboard-response","376","2.0.0","311272","pcsplmypgbo","bigger","cheetah","Something about trying to see if our knowledge of the object affects our task?","no","stimuli/33-Inongruent.jpg","m","","","","","right","m","true"
"","null","html-keyboard-response","377","2.0.0","312175","pcsplmypgbo","bigger","cheetah","Something about trying to see if our knowledge of the object affects our task?","no","<p>Correct!</p>","null","","","","","","",""
"","null","html-keyboard-response","378","2.0.0","313178","pcsplmypgbo","bigger","cheetah","Something about trying to see if our knowledge of the object affects our task?","no","<div style=""font-size:60px;"">+</div>","null","","","","","","",""
"","427","image-keyboard-response","379","2.0.0","313607","pcsplmypgbo","bigger","cheetah","Something about trying to see if our knowledge of the object affects our task?","no","stimuli/19-Congruent.jpg","z","","","","","left","z","true"
"","null","html-keyboard-response","380","2.0.0","314509","pcsplmypgbo","bigger","cheetah","Something about trying to see if our knowledge of the object affects our task?","no","<p>Correct!</p>","null","","","","","","",""
"","null","html-keyboard-response","381","2.0.0","315511","pcsplmypgbo","bigger","cheetah","Something about trying to see if our knowledge of the object affects our task?","no","<div style=""font-size:60px;"">+</div>","null","","","","","","",""
"","464","image-keyboard-response","382","2.0.0","315977","pcsplmypgbo","bigger","cheetah","Something about trying to see if our knowledge of the object affects our task?","no","stimuli/1-Congruent.jpg","z","","","","","left","z","true"
"","null","html-keyboard-response","383","2.0.0","316880","pcsplmypgbo","bigger","cheetah","Something about trying to see if our knowledge of the object affects our task?","no","<p>Correct!</p>","null","","","","","","",""
"","null","html-keyboard-response","384","2.0.0","317883","pcsplmypgbo","bigger","cheetah","Something about trying to see if our knowledge of the object affects our task?","no","<div style=""font-size:60px;"">+</div>","null","","","","","","",""
"","414","image-keyboard-response","385","2.0.0","318299","pcsplmypgbo","bigger","cheetah","Something about trying to see if our knowledge of the object affects our task?","no","stimuli/30-Congruent.jpg","z","","","","","left","z","true"
"","null","html-keyboard-response","386","2.0.0","319200","pcsplmypgbo","bigger","cheetah","Something about trying to see if our knowledge of the object affects our task?","no","<p>Correct!</p>","null","","","","","","",""
"","null","html-keyboard-response","387","2.0.0","320203","pcsplmypgbo","bigger","cheetah","Something about trying to see if our knowledge of the object affects our task?","no","<div style=""font-size:60px;"">+</div>","null","","","","","","",""
"","490","image-keyboard-response","388","2.0.0","320695","pcsplmypgbo","bigger","cheetah","Something about trying to see if our knowledge of the object affects our task?","no","stimuli/17-Inongruent.jpg","m","","","","","right","m","true"
"","null","html-keyboard-response","389","2.0.0","321598","pcsplmypgbo","bigger","cheetah","Something about trying to see if our knowledge of the object affects our task?","no","<p>Correct!</p>","null","","","","","","",""
"","null","html-keyboard-response","390","2.0.0","322601","pcsplmypgbo","bigger","cheetah","Something about trying to see if our knowledge of the object affects our task?","no","<div style=""font-size:60px;"">+</div>","null","","","","","","",""
"","609","image-keyboard-response","391","2.0.0","323212","pcsplmypgbo","bigger","cheetah","Something about trying to see if our knowledge of the object affects our task?","no","stimuli/24-Inongruent.jpg","m","","","","","right","m","true"
"","null","html-keyboard-response","392","2.0.0","324114","pcsplmypgbo","bigger","cheetah","Something about trying to see if our knowledge of the object affects our task?","no","<p>Correct!</p>","null","","","","","","",""
"","null","html-keyboard-response","393","2.0.0","325117","pcsplmypgbo","bigger","cheetah","Something about trying to see if our knowledge of the object affects our task?","no","<div style=""font-size:60px;"">+</div>","null","","","","","","",""
"","477","image-keyboard-response","394","2.0.0","325596","pcsplmypgbo","bigger","cheetah","Something about trying to see if our knowledge of the object affects our task?","no","stimuli/35-Inongruent.jpg","m","","","","","right","m","true"
"","null","html-keyboard-response","395","2.0.0","326499","pcsplmypgbo","bigger","cheetah","Something about trying to see if our knowledge of the object affects our task?","no","<p>Correct!</p>","null","","","","","","",""
"","null","html-keyboard-response","396","2.0.0","327501","pcsplmypgbo","bigger","cheetah","Something about trying to see if our knowledge of the object affects our task?","no","<div style=""font-size:60px;"">+</div>","null","","","","","","",""
"","430","image-keyboard-response","397","2.0.0","327933","pcsplmypgbo","bigger","cheetah","Something about trying to see if our knowledge of the object affects our task?","no","stimuli/12-Inongruent.jpg","m","","","","","right","m","true"
"","null","html-keyboard-response","398","2.0.0","328835","pcsplmypgbo","bigger","cheetah","Something about trying to see if our knowledge of the object affects our task?","no","<p>Correct!</p>","null","","","","","","",""
"","null","html-keyboard-response","399","2.0.0","329838","pcsplmypgbo","bigger","cheetah","Something about trying to see if our knowledge of the object affects our task?","no","<div style=""font-size:60px;"">+</div>","null","","","","","","",""
"","412","image-keyboard-response","400","2.0.0","330253","pcsplmypgbo","bigger","cheetah","Something about trying to see if our knowledge of the object affects our task?","no","stimuli/16-Inongruent.jpg","m","","","","","right","m","true"
"","null","html-keyboard-response","401","2.0.0","331156","pcsplmypgbo","bigger","cheetah","Something about trying to see if our knowledge of the object affects our task?","no","<p>Correct!</p>","null","","","","","","",""
"","null","html-keyboard-response","402","2.0.0","332159","pcsplmypgbo","bigger","cheetah","Something about trying to see if our knowledge of the object affects our task?","no","<div style=""font-size:60px;"">+</div>","null","","","","","","",""
"","608","image-keyboard-response","403","2.0.0","332769","pcsplmypgbo","bigger","cheetah","Something about trying to see if our knowledge of the object affects our task?","no","stimuli/32-Inongruent.jpg","m","","","","","right","m","true"
"","null","html-keyboard-response","404","2.0.0","333671","pcsplmypgbo","bigger","cheetah","Something about trying to see if our knowledge of the object affects our task?","no","<p>Correct!</p>","null","","","","","","",""
"","null","html-keyboard-response","405","2.0.0","334674","pcsplmypgbo","bigger","cheetah","Something about trying to see if our knowledge of the object affects our task?","no","<div style=""font-size:60px;"">+</div>","null","","","","","","",""
"","479","image-keyboard-response","406","2.0.0","335155","pcsplmypgbo","bigger","cheetah","Something about trying to see if our knowledge of the object affects our task?","no","stimuli/19-Inongruent.jpg","m","","","","","right","m","true"
"","null","html-keyboard-response","407","2.0.0","336057","pcsplmypgbo","bigger","cheetah","Something about trying to see if our knowledge of the object affects our task?","no","<p>Correct!</p>","null","","","","","","",""
"","null","html-keyboard-response","408","2.0.0","337060","pcsplmypgbo","bigger","cheetah","Something about trying to see if our knowledge of the object affects our task?","no","<div style=""font-size:60px;"">+</div>","null","","","","","","",""
"","410","image-keyboard-response","409","2.0.0","337472","pcsplmypgbo","bigger","cheetah","Something about trying to see if our knowledge of the object affects our task?","no","stimuli/28-Inongruent.jpg","m","","","","","right","m","true"
"","null","html-keyboard-response","410","2.0.0","338375","pcsplmypgbo","bigger","cheetah","Something about trying to see if our knowledge of the object affects our task?","no","<p>Correct!</p>","null","","","","","","",""
"","null","html-keyboard-response","411","2.0.0","339378","pcsplmypgbo","bigger","cheetah","Something about trying to see if our knowledge of the object affects our task?","no","<div style=""font-size:60px;"">+</div>","null","","","","","","",""
"","380","image-keyboard-response","412","2.0.0","339759","pcsplmypgbo","bigger","cheetah","Something about trying to see if our knowledge of the object affects our task?","no","stimuli/23-Congruent.jpg","z","","","","","left","z","true"
"","null","html-keyboard-response","413","2.0.0","340662","pcsplmypgbo","bigger","cheetah","Something about trying to see if our knowledge of the object affects our task?","no","<p>Correct!</p>","null","","","","","","",""
"","null","html-keyboard-response","414","2.0.0","341664","pcsplmypgbo","bigger","cheetah","Something about trying to see if our knowledge of the object affects our task?","no","<div style=""font-size:60px;"">+</div>","null","","","","","","",""
"","419","image-keyboard-response","415","2.0.0","342085","pcsplmypgbo","bigger","cheetah","Something about trying to see if our knowledge of the object affects our task?","no","stimuli/22-Inongruent.jpg","m","","","","","right","m","true"
"","null","html-keyboard-response","416","2.0.0","342988","pcsplmypgbo","bigger","cheetah","Something about trying to see if our knowledge of the object affects our task?","no","<p>Correct!</p>","null","","","","","","",""
"","null","html-keyboard-response","417","2.0.0","343991","pcsplmypgbo","bigger","cheetah","Something about trying to see if our knowledge of the object affects our task?","no","<div style=""font-size:60px;"">+</div>","null","","","","","","",""
"","382","image-keyboard-response","418","2.0.0","344374","pcsplmypgbo","bigger","cheetah","Something about trying to see if our knowledge of the object affects our task?","no","stimuli/5-Congruent.jpg","z","","","","","left","z","true"
"","null","html-keyboard-response","419","2.0.0","345276","pcsplmypgbo","bigger","cheetah","Something about trying to see if our knowledge of the object affects our task?","no","<p>Correct!</p>","null","","","","","","",""
