"success","rt","trial_type","trial_index","plugin_version","time_elapsed","random_id","condition","participant","participant_thoughts","participant_difficulties","stimulus","response","timeout","failed_images","failed_audio","failed_video","correct_response","correct_response_key","correct"
"true","8152","fullscreen","0","null","9176","pczzlpcvrs0","bigger","manatee","To see how quickly we can react to image sizes","","","","","","","","","",""
"","988","html-keyboard-response","1","2.0.0","10168","pczzlpcvrs0","bigger","manatee","To see how quickly we can react to image sizes","","Welcome to the Size Stroop experiment. Press any key to begin.","Enter","","","","","","",""
"","613","html-keyboard-response","2","2.0.0","10783","pczzlpcvrs0","bigger","manatee","To see how quickly we can react to image sizes","","This trial will be in fullscreen mode.","Enter","","","","","","",""
"","2007","survey-text","3","2.0.0","12798","pczzlpcvrs0","bigger","manatee","To see how quickly we can react to image sizes","","","{""participant_id"":""manatee""}","","","","","","",""
"","7256","html-keyboard-response","4","2.0.0","20057","pczzlpcvrs0","bigger","manatee","To see how quickly we can react to image sizes","","<p>In this experiment, two images will appear on the screen. Identify the <strong>larger</strong> images.</p>
              <p>If the image on the left is larger, press ""z"". If the image on the right is larger, press ""m"".</p>
              <p>Press any key to begin.</p>","Enter","","","","","","",""
"true","","preload","5","2.0.0","20498","pczzlpcvrs0","bigger","manatee","To see how quickly we can react to image sizes","","","","false","[]","[]","[]","","",""
"","null","html-keyboard-response","6","2.0.0","21500","pczzlpcvrs0","bigger","manatee","To see how quickly we can react to image sizes","","<div style=""font-size:60px;"">+</div>","null","","","","","","",""
"","765","image-keyboard-response","7","2.0.0","22279","pczzlpcvrs0","bigger","manatee","To see how quickly we can react to image sizes","","stimuli/4-Inongruent.jpg","m","","","","","right","m","true"
"","null","html-keyboard-response","8","2.0.0","23199","pczzlpcvrs0","bigger","manatee","To see how quickly we can react to image sizes","","<p>Correct!</p>","null","","","","","","",""
"","null","html-keyboard-response","9","2.0.0","24213","pczzlpcvrs0","bigger","manatee","To see how quickly we can react to image sizes","","<div style=""font-size:60px;"">+</div>","null","","","","","","",""
"","572","image-keyboard-response","10","2.0.0","24792","pczzlpcvrs0","bigger","manatee","To see how quickly we can react to image sizes","","stimuli/10-Congruent.jpg","z","","","","","left","z","true"
"","null","html-keyboard-response","11","2.0.0","25705","pczzlpcvrs0","bigger","manatee","To see how quickly we can react to image sizes","","<p>Correct!</p>","null","","","","","","",""
"","null","html-keyboard-response","12","2.0.0","26711","pczzlpcvrs0","bigger","manatee","To see how quickly we can react to image sizes","","<div style=""font-size:60px;"">+</div>","null","","","","","","",""
"","513","image-keyboard-response","13","2.0.0","27231","pczzlpcvrs0","bigger","manatee","To see how quickly we can react to image sizes","","stimuli/24-Inongruent.jpg","m","","","","","right","m","true"
"","null","html-keyboard-response","14","2.0.0","28139","pczzlpcvrs0","bigger","manatee","To see how quickly we can react to image sizes","","<p>Correct!</p>","null","","","","","","",""
"","null","html-keyboard-response","15","2.0.0","29147","pczzlpcvrs0","bigger","manatee","To see how quickly we can react to image sizes","","<div style=""font-size:60px;"">+</div>","null","","","","","","",""
"","444","image-keyboard-response","16","2.0.0","29595","pczzlpcvrs0","bigger","manatee","To see how quickly we can react to image sizes","","stimuli/12-Congruent.jpg","z","","","","","left","z","true"
"","null","html-keyboard-response","17","2.0.0","30500","pczzlpcvrs0","bigger","manatee","To see how quickly we can react to image sizes","","<p>Correct!</p>","null","","","","","","",""
"","null","html-keyboard-response","18","2.0.0","31507","pczzlpcvrs0","bigger","manatee","To see how quickly we can react to image sizes","","<div style=""font-size:60px;"">+</div>","null","","","","","","",""
"","463","image-keyboard-response","19","2.0.0","31986","pczzlpcvrs0","bigger","manatee","To see how quickly we can react to image sizes","","stimuli/30-Inongruent.jpg","m","","","","","right","m","true"
"","null","html-keyboard-response","20","2.0.0","32900","pczzlpcvrs0","bigger","manatee","To see how quickly we can react to image sizes","","<p>Correct!</p>","null","","","","","","",""
"","null","html-keyboard-response","21","2.0.0","33920","pczzlpcvrs0","bigger","manatee","To see how quickly we can react to image sizes","","<div style=""font-size:60px;"">+</div>","null","","","","","","",""
"","502","image-keyboard-response","22","2.0.0","34430","pczzlpcvrs0","bigger","manatee","To see how quickly we can react to image sizes","","stimuli/6-Inongruent.jpg","m","","","","","right","m","true"
"","null","html-keyboard-response","23","2.0.0","35350","pczzlpcvrs0","bigger","manatee","To see how quickly we can react to image sizes","","<p>Correct!</p>","null","","","","","","",""
"","null","html-keyboard-response","24","2.0.0","36369","pczzlpcvrs0","bigger","manatee","To see how quickly we can react to image sizes","","<div style=""font-size:60px;"">+</div>","null","","","","","","",""
"","429","image-keyboard-response","25","2.0.0","36803","pczzlpcvrs0","bigger","manatee","To see how quickly we can react to image sizes","","stimuli/20-Congruent.jpg","z","","","","","left","z","true"
"","null","html-keyboard-response","26","2.0.0","37708","pczzlpcvrs0","bigger","manatee","To see how quickly we can react to image sizes","","<p>Correct!</p>","null","","","","","","",""
"","null","html-keyboard-response","27","2.0.0","38719","pczzlpcvrs0","bigger","manatee","To see how quickly we can react to image sizes","","<div style=""font-size:60px;"">+</div>","null","","","","","","",""
"","482","image-keyboard-response","28","2.0.0","39209","pczzlpcvrs0","bigger","manatee","To see how quickly we can react to image sizes","","stimuli/3-Congruent.jpg","z","","","","","left","z","true"
"","null","html-keyboard-response","29","2.0.0","40114","pczzlpcvrs0","bigger","manatee","To see how quickly we can react to image sizes","","<p>Correct!</p>","null","","","","","","",""
"","null","html-keyboard-response","30","2.0.0","41127","pczzlpcvrs0","bigger","manatee","To see how quickly we can react to image sizes","","<div style=""font-size:60px;"">+</div>","null","","","","","","",""
"","444","image-keyboard-response","31","2.0.0","41577","pczzlpcvrs0","bigger","manatee","To see how quickly we can react to image sizes","","stimuli/14-Congruent.jpg","z","","","","","left","z","true"
"","null","html-keyboard-response","32","2.0.0","42484","pczzlpcvrs0","bigger","manatee","To see how quickly we can react to image sizes","","<p>Correct!</p>","null","","","","","","",""
"","null","html-keyboard-response","33","2.0.0","43503","pczzlpcvrs0","bigger","manatee","To see how quickly we can react to image sizes","","<div style=""font-size:60px;"">+</div>","null","","","","","","",""
"","395","image-keyboard-response","34","2.0.0","43903","pczzlpcvrs0","bigger","manatee","To see how quickly we can react to image sizes","","stimuli/13-Congruent.jpg","z","","","","","left","z","true"
"","null","html-keyboard-response","35","2.0.0","44808","pczzlpcvrs0","bigger","manatee","To see how quickly we can react to image sizes","","<p>Correct!</p>","null","","","","","","",""
"","null","html-keyboard-response","36","2.0.0","45822","pczzlpcvrs0","bigger","manatee","To see how quickly we can react to image sizes","","<div style=""font-size:60px;"">+</div>","null","","","","","","",""
"","674","image-keyboard-response","37","2.0.0","46503","pczzlpcvrs0","bigger","manatee","To see how quickly we can react to image sizes","","stimuli/34-Inongruent.jpg","m","","","","","right","m","true"
"","null","html-keyboard-response","38","2.0.0","47411","pczzlpcvrs0","bigger","manatee","To see how quickly we can react to image sizes","","<p>Correct!</p>","null","","","","","","",""
"","null","html-keyboard-response","39","2.0.0","48422","pczzlpcvrs0","bigger","manatee","To see how quickly we can react to image sizes","","<div style=""font-size:60px;"">+</div>","null","","","","","","",""
"","569","image-keyboard-response","40","2.0.0","48999","pczzlpcvrs0","bigger","manatee","To see how quickly we can react to image sizes","","stimuli/19-Inongruent.jpg","m","","","","","right","m","true"
"","null","html-keyboard-response","41","2.0.0","49913","pczzlpcvrs0","bigger","manatee","To see how quickly we can react to image sizes","","<p>Correct!</p>","null","","","","","","",""
"","null","html-keyboard-response","42","2.0.0","50932","pczzlpcvrs0","bigger","manatee","To see how quickly we can react to image sizes","","<div style=""font-size:60px;"">+</div>","null","","","","","","",""
"","575","image-keyboard-response","43","2.0.0","51520","pczzlpcvrs0","bigger","manatee","To see how quickly we can react to image sizes","","stimuli/33-Congruent.jpg","z","","","","","left","z","true"
"","null","html-keyboard-response","44","2.0.0","52432","pczzlpcvrs0","bigger","manatee","To see how quickly we can react to image sizes","","<p>Correct!</p>","null","","","","","","",""
"","null","html-keyboard-response","45","2.0.0","53445","pczzlpcvrs0","bigger","manatee","To see how quickly we can react to image sizes","","<div style=""font-size:60px;"">+</div>","null","","","","","","",""
"","480","image-keyboard-response","46","2.0.0","53930","pczzlpcvrs0","bigger","manatee","To see how quickly we can react to image sizes","","stimuli/12-Congruent.jpg","z","","","","","left","z","true"
"","null","html-keyboard-response","47","2.0.0","54833","pczzlpcvrs0","bigger","manatee","To see how quickly we can react to image sizes","","<p>Correct!</p>","null","","","","","","",""
"","null","html-keyboard-response","48","2.0.0","55837","pczzlpcvrs0","bigger","manatee","To see how quickly we can react to image sizes","","<div style=""font-size:60px;"">+</div>","null","","","","","","",""
"","637","image-keyboard-response","49","2.0.0","56479","pczzlpcvrs0","bigger","manatee","To see how quickly we can react to image sizes","","stimuli/7-Congruent.jpg","z","","","","","left","z","true"
"","null","html-keyboard-response","50","2.0.0","57390","pczzlpcvrs0","bigger","manatee","To see how quickly we can react to image sizes","","<p>Correct!</p>","null","","","","","","",""
"","null","html-keyboard-response","51","2.0.0","58405","pczzlpcvrs0","bigger","manatee","To see how quickly we can react to image sizes","","<div style=""font-size:60px;"">+</div>","null","","","","","","",""
"","378","image-keyboard-response","52","2.0.0","58785","pczzlpcvrs0","bigger","manatee","To see how quickly we can react to image sizes","","stimuli/10-Inongruent.jpg","m","","","","","right","m","true"
"","null","html-keyboard-response","53","2.0.0","59695","pczzlpcvrs0","bigger","manatee","To see how quickly we can react to image sizes","","<p>Correct!</p>","null","","","","","","",""
"","null","html-keyboard-response","54","2.0.0","60702","pczzlpcvrs0","bigger","manatee","To see how quickly we can react to image sizes","","<div style=""font-size:60px;"">+</div>","null","","","","","","",""
"","562","image-keyboard-response","55","2.0.0","61268","pczzlpcvrs0","bigger","manatee","To see how quickly we can react to image sizes","","stimuli/13-Inongruent.jpg","m","","","","","right","m","true"
"","null","html-keyboard-response","56","2.0.0","62174","pczzlpcvrs0","bigger","manatee","To see how quickly we can react to image sizes","","<p>Correct!</p>","null","","","","","","",""
"","null","html-keyboard-response","57","2.0.0","63184","pczzlpcvrs0","bigger","manatee","To see how quickly we can react to image sizes","","<div style=""font-size:60px;"">+</div>","null","","","","","","",""
"","612","image-keyboard-response","58","2.0.0","63802","pczzlpcvrs0","bigger","manatee","To see how quickly we can react to image sizes","","stimuli/12-Inongruent.jpg","z","","","","","right","m","false"
"","null","html-keyboard-response","59","2.0.0","68816","pczzlpcvrs0","bigger","manatee","To see how quickly we can react to image sizes","","<p>Incorrect.</p><p>Remember to select the <b>bigger</b> image.</p><p>Continuing in 5 seconds...</p>","null","","","","","","",""
"","null","html-keyboard-response","60","2.0.0","69829","pczzlpcvrs0","bigger","manatee","To see how quickly we can react to image sizes","","<div style=""font-size:60px;"">+</div>","null","","","","","","",""
"","576","image-keyboard-response","61","2.0.0","70409","pczzlpcvrs0","bigger","manatee","To see how quickly we can react to image sizes","","stimuli/25-Inongruent.jpg","m","","","","","right","m","true"
"","null","html-keyboard-response","62","2.0.0","71323","pczzlpcvrs0","bigger","manatee","To see how quickly we can react to image sizes","","<p>Correct!</p>","null","","","","","","",""
"","null","html-keyboard-response","63","2.0.0","72339","pczzlpcvrs0","bigger","manatee","To see how quickly we can react to image sizes","","<div style=""font-size:60px;"">+</div>","null","","","","","","",""
"","567","image-keyboard-response","64","2.0.0","72911","pczzlpcvrs0","bigger","manatee","To see how quickly we can react to image sizes","","stimuli/13-Congruent.jpg","z","","","","","left","z","true"
"","null","html-keyboard-response","65","2.0.0","73815","pczzlpcvrs0","bigger","manatee","To see how quickly we can react to image sizes","","<p>Correct!</p>","null","","","","","","",""
"","null","html-keyboard-response","66","2.0.0","74829","pczzlpcvrs0","bigger","manatee","To see how quickly we can react to image sizes","","<div style=""font-size:60px;"">+</div>","null","","","","","","",""
"","589","image-keyboard-response","67","2.0.0","75424","pczzlpcvrs0","bigger","manatee","To see how quickly we can react to image sizes","","stimuli/9-Congruent.jpg","z","","","","","left","z","true"
"","null","html-keyboard-response","68","2.0.0","76328","pczzlpcvrs0","bigger","manatee","To see how quickly we can react to image sizes","","<p>Correct!</p>","null","","","","","","",""
"","null","html-keyboard-response","69","2.0.0","77339","pczzlpcvrs0","bigger","manatee","To see how quickly we can react to image sizes","","<div style=""font-size:60px;"">+</div>","null","","","","","","",""
"","547","image-keyboard-response","70","2.0.0","77890","pczzlpcvrs0","bigger","manatee","To see how quickly we can react to image sizes","","stimuli/27-Congruent.jpg","z","","","","","left","z","true"
"","null","html-keyboard-response","71","2.0.0","78795","pczzlpcvrs0","bigger","manatee","To see how quickly we can react to image sizes","","<p>Correct!</p>","null","","","","","","",""
"","null","html-keyboard-response","72","2.0.0","79805","pczzlpcvrs0","bigger","manatee","To see how quickly we can react to image sizes","","<div style=""font-size:60px;"">+</div>","null","","","","","","",""
"","469","image-keyboard-response","73","2.0.0","80279","pczzlpcvrs0","bigger","manatee","To see how quickly we can react to image sizes","","stimuli/23-Inongruent.jpg","m","","","","","right","m","true"
"","null","html-keyboard-response","74","2.0.0","81191","pczzlpcvrs0","bigger","manatee","To see how quickly we can react to image sizes","","<p>Correct!</p>","null","","","","","","",""
"","null","html-keyboard-response","75","2.0.0","82200","pczzlpcvrs0","bigger","manatee","To see how quickly we can react to image sizes","","<div style=""font-size:60px;"">+</div>","null","","","","","","",""
"","530","image-keyboard-response","76","2.0.0","82735","pczzlpcvrs0","bigger","manatee","To see how quickly we can react to image sizes","","stimuli/2-Inongruent.jpg","m","","","","","right","m","true"
"","null","html-keyboard-response","77","2.0.0","83640","pczzlpcvrs0","bigger","manatee","To see how quickly we can react to image sizes","","<p>Correct!</p>","null","","","","","","",""
"","null","html-keyboard-response","78","2.0.0","84648","pczzlpcvrs0","bigger","manatee","To see how quickly we can react to image sizes","","<div style=""font-size:60px;"">+</div>","null","","","","","","",""
"","552","image-keyboard-response","79","2.0.0","85206","pczzlpcvrs0","bigger","manatee","To see how quickly we can react to image sizes","","stimuli/15-Congruent.jpg","z","","","","","left","z","true"
"","null","html-keyboard-response","80","2.0.0","86123","pczzlpcvrs0","bigger","manatee","To see how quickly we can react to image sizes","","<p>Correct!</p>","null","","","","","","",""
"","null","html-keyboard-response","81","2.0.0","87142","pczzlpcvrs0","bigger","manatee","To see how quickly we can react to image sizes","","<div style=""font-size:60px;"">+</div>","null","","","","","","",""
"","1101","image-keyboard-response","82","2.0.0","88248","pczzlpcvrs0","bigger","manatee","To see how quickly we can react to image sizes","","stimuli/12-Inongruent.jpg","m","","","","","right","m","true"
"","null","html-keyboard-response","83","2.0.0","89154","pczzlpcvrs0","bigger","manatee","To see how quickly we can react to image sizes","","<p>Correct!</p>","null","","","","","","",""
"","null","html-keyboard-response","84","2.0.0","90165","pczzlpcvrs0","bigger","manatee","To see how quickly we can react to image sizes","","<div style=""font-size:60px;"">+</div>","null","","","","","","",""
"","565","image-keyboard-response","85","2.0.0","90737","pczzlpcvrs0","bigger","manatee","To see how quickly we can react to image sizes","","stimuli/14-Inongruent.jpg","m","","","","","right","m","true"
"","null","html-keyboard-response","86","2.0.0","91655","pczzlpcvrs0","bigger","manatee","To see how quickly we can react to image sizes","","<p>Correct!</p>","null","","","","","","",""
"","null","html-keyboard-response","87","2.0.0","92666","pczzlpcvrs0","bigger","manatee","To see how quickly we can react to image sizes","","<div style=""font-size:60px;"">+</div>","null","","","","","","",""
"","1029","image-keyboard-response","88","2.0.0","93702","pczzlpcvrs0","bigger","manatee","To see how quickly we can react to image sizes","","stimuli/11-Congruent.jpg","z","","","","","left","z","true"
"","null","html-keyboard-response","89","2.0.0","94606","pczzlpcvrs0","bigger","manatee","To see how quickly we can react to image sizes","","<p>Correct!</p>","null","","","","","","",""
"","null","html-keyboard-response","90","2.0.0","95613","pczzlpcvrs0","bigger","manatee","To see how quickly we can react to image sizes","","<div style=""font-size:60px;"">+</div>","null","","","","","","",""
"","590","image-keyboard-response","91","2.0.0","96210","pczzlpcvrs0","bigger","manatee","To see how quickly we can react to image sizes","","stimuli/34-Congruent.jpg","z","","","","","left","z","true"
"","null","html-keyboard-response","92","2.0.0","97114","pczzlpcvrs0","bigger","manatee","To see how quickly we can react to image sizes","","<p>Correct!</p>","null","","","","","","",""
"","null","html-keyboard-response","93","2.0.0","98128","pczzlpcvrs0","bigger","manatee","To see how quickly we can react to image sizes","","<div style=""font-size:60px;"">+</div>","null","","","","","","",""
"","507","image-keyboard-response","94","2.0.0","98642","pczzlpcvrs0","bigger","manatee","To see how quickly we can react to image sizes","","stimuli/26-Inongruent.jpg","m","","","","","right","m","true"
"","null","html-keyboard-response","95","2.0.0","99557","pczzlpcvrs0","bigger","manatee","To see how quickly we can react to image sizes","","<p>Correct!</p>","null","","","","","","",""
"","null","html-keyboard-response","96","2.0.0","100562","pczzlpcvrs0","bigger","manatee","To see how quickly we can react to image sizes","","<div style=""font-size:60px;"">+</div>","null","","","","","","",""
"","525","image-keyboard-response","97","2.0.0","101094","pczzlpcvrs0","bigger","manatee","To see how quickly we can react to image sizes","","stimuli/33-Congruent.jpg","z","","","","","left","z","true"
"","null","html-keyboard-response","98","2.0.0","102013","pczzlpcvrs0","bigger","manatee","To see how quickly we can react to image sizes","","<p>Correct!</p>","null","","","","","","",""
"","null","html-keyboard-response","99","2.0.0","103027","pczzlpcvrs0","bigger","manatee","To see how quickly we can react to image sizes","","<div style=""font-size:60px;"">+</div>","null","","","","","","",""
"","550","image-keyboard-response","100","2.0.0","103585","pczzlpcvrs0","bigger","manatee","To see how quickly we can react to image sizes","","stimuli/20-Inongruent.jpg","m","","","","","right","m","true"
"","null","html-keyboard-response","101","2.0.0","104494","pczzlpcvrs0","bigger","manatee","To see how quickly we can react to image sizes","","<p>Correct!</p>","null","","","","","","",""
"","null","html-keyboard-response","102","2.0.0","105508","pczzlpcvrs0","bigger","manatee","To see how quickly we can react to image sizes","","<div style=""font-size:60px;"">+</div>","null","","","","","","",""
"","506","image-keyboard-response","103","2.0.0","106019","pczzlpcvrs0","bigger","manatee","To see how quickly we can react to image sizes","","stimuli/16-Congruent.jpg","z","","","","","left","z","true"
"","null","html-keyboard-response","104","2.0.0","106928","pczzlpcvrs0","bigger","manatee","To see how quickly we can react to image sizes","","<p>Correct!</p>","null","","","","","","",""
"","null","html-keyboard-response","105","2.0.0","107943","pczzlpcvrs0","bigger","manatee","To see how quickly we can react to image sizes","","<div style=""font-size:60px;"">+</div>","null","","","","","","",""
"","1028","image-keyboard-response","106","2.0.0","108979","pczzlpcvrs0","bigger","manatee","To see how quickly we can react to image sizes","","stimuli/30-Congruent.jpg","z","","","","","left","z","true"
"","null","html-keyboard-response","107","2.0.0","109884","pczzlpcvrs0","bigger","manatee","To see how quickly we can react to image sizes","","<p>Correct!</p>","null","","","","","","",""
"","null","html-keyboard-response","108","2.0.0","110903","pczzlpcvrs0","bigger","manatee","To see how quickly we can react to image sizes","","<div style=""font-size:60px;"">+</div>","null","","","","","","",""
"","697","image-keyboard-response","109","2.0.0","111607","pczzlpcvrs0","bigger","manatee","To see how quickly we can react to image sizes","","stimuli/32-Congruent.jpg","z","","","","","left","z","true"
"","null","html-keyboard-response","110","2.0.0","112520","pczzlpcvrs0","bigger","manatee","To see how quickly we can react to image sizes","","<p>Correct!</p>","null","","","","","","",""
"","null","html-keyboard-response","111","2.0.0","113534","pczzlpcvrs0","bigger","manatee","To see how quickly we can react to image sizes","","<div style=""font-size:60px;"">+</div>","null","","","","","","",""
"","492","image-keyboard-response","112","2.0.0","114033","pczzlpcvrs0","bigger","manatee","To see how quickly we can react to image sizes","","stimuli/2-Inongruent.jpg","m","","","","","right","m","true"
"","null","html-keyboard-response","113","2.0.0","114947","pczzlpcvrs0","bigger","manatee","To see how quickly we can react to image sizes","","<p>Correct!</p>","null","","","","","","",""
"","null","html-keyboard-response","114","2.0.0","115952","pczzlpcvrs0","bigger","manatee","To see how quickly we can react to image sizes","","<div style=""font-size:60px;"">+</div>","null","","","","","","",""
"","756","image-keyboard-response","115","2.0.0","116716","pczzlpcvrs0","bigger","manatee","To see how quickly we can react to image sizes","","stimuli/22-Inongruent.jpg","m","","","","","right","m","true"
"","null","html-keyboard-response","116","2.0.0","117636","pczzlpcvrs0","bigger","manatee","To see how quickly we can react to image sizes","","<p>Correct!</p>","null","","","","","","",""
"","null","html-keyboard-response","117","2.0.0","118651","pczzlpcvrs0","bigger","manatee","To see how quickly we can react to image sizes","","<div style=""font-size:60px;"">+</div>","null","","","","","","",""
"","568","image-keyboard-response","118","2.0.0","119226","pczzlpcvrs0","bigger","manatee","To see how quickly we can react to image sizes","","stimuli/29-Inongruent.jpg","m","","","","","right","m","true"
"","null","html-keyboard-response","119","2.0.0","120144","pczzlpcvrs0","bigger","manatee","To see how quickly we can react to image sizes","","<p>Correct!</p>","null","","","","","","",""
"","null","html-keyboard-response","120","2.0.0","121161","pczzlpcvrs0","bigger","manatee","To see how quickly we can react to image sizes","","<div style=""font-size:60px;"">+</div>","null","","","","","","",""
"","534","image-keyboard-response","121","2.0.0","121702","pczzlpcvrs0","bigger","manatee","To see how quickly we can react to image sizes","","stimuli/25-Congruent.jpg","z","","","","","left","z","true"
"","null","html-keyboard-response","122","2.0.0","122610","pczzlpcvrs0","bigger","manatee","To see how quickly we can react to image sizes","","<p>Correct!</p>","null","","","","","","",""
"","null","html-keyboard-response","123","2.0.0","123616","pczzlpcvrs0","bigger","manatee","To see how quickly we can react to image sizes","","<div style=""font-size:60px;"">+</div>","null","","","","","","",""
"","525","image-keyboard-response","124","2.0.0","124147","pczzlpcvrs0","bigger","manatee","To see how quickly we can react to image sizes","","stimuli/26-Inongruent.jpg","m","","","","","right","m","true"
"","null","html-keyboard-response","125","2.0.0","125059","pczzlpcvrs0","bigger","manatee","To see how quickly we can react to image sizes","","<p>Correct!</p>","null","","","","","","",""
"","null","html-keyboard-response","126","2.0.0","126074","pczzlpcvrs0","bigger","manatee","To see how quickly we can react to image sizes","","<div style=""font-size:60px;"">+</div>","null","","","","","","",""
"","569","image-keyboard-response","127","2.0.0","126651","pczzlpcvrs0","bigger","manatee","To see how quickly we can react to image sizes","","stimuli/22-Congruent.jpg","z","","","","","left","z","true"
"","null","html-keyboard-response","128","2.0.0","127567","pczzlpcvrs0","bigger","manatee","To see how quickly we can react to image sizes","","<p>Correct!</p>","null","","","","","","",""
"","null","html-keyboard-response","129","2.0.0","128573","pczzlpcvrs0","bigger","manatee","To see how quickly we can react to image sizes","","<div style=""font-size:60px;"">+</div>","null","","","","","","",""
"","559","image-keyboard-response","130","2.0.0","129138","pczzlpcvrs0","bigger","manatee","To see how quickly we can react to image sizes","","stimuli/23-Congruent.jpg","z","","","","","left","z","true"
"","null","html-keyboard-response","131","2.0.0","130050","pczzlpcvrs0","bigger","manatee","To see how quickly we can react to image sizes","","<p>Correct!</p>","null","","","","","","",""
"","null","html-keyboard-response","132","2.0.0","131057","pczzlpcvrs0","bigger","manatee","To see how quickly we can react to image sizes","","<div style=""font-size:60px;"">+</div>","null","","","","","","",""
"","782","image-keyboard-response","133","2.0.0","131846","pczzlpcvrs0","bigger","manatee","To see how quickly we can react to image sizes","","stimuli/35-Congruent.jpg","z","","","","","left","z","true"
"","null","html-keyboard-response","134","2.0.0","132753","pczzlpcvrs0","bigger","manatee","To see how quickly we can react to image sizes","","<p>Correct!</p>","null","","","","","","",""
"","null","html-keyboard-response","135","2.0.0","133766","pczzlpcvrs0","bigger","manatee","To see how quickly we can react to image sizes","","<div style=""font-size:60px;"">+</div>","null","","","","","","",""
"","398","image-keyboard-response","136","2.0.0","134170","pczzlpcvrs0","bigger","manatee","To see how quickly we can react to image sizes","","stimuli/11-Inongruent.jpg","m","","","","","right","m","true"
"","null","html-keyboard-response","137","2.0.0","135089","pczzlpcvrs0","bigger","manatee","To see how quickly we can react to image sizes","","<p>Correct!</p>","null","","","","","","",""
"","null","html-keyboard-response","138","2.0.0","136109","pczzlpcvrs0","bigger","manatee","To see how quickly we can react to image sizes","","<div style=""font-size:60px;"">+</div>","null","","","","","","",""
"","515","image-keyboard-response","139","2.0.0","136632","pczzlpcvrs0","bigger","manatee","To see how quickly we can react to image sizes","","stimuli/19-Inongruent.jpg","m","","","","","right","m","true"
"","null","html-keyboard-response","140","2.0.0","137538","pczzlpcvrs0","bigger","manatee","To see how quickly we can react to image sizes","","<p>Correct!</p>","null","","","","","","",""
"","null","html-keyboard-response","141","2.0.0","138556","pczzlpcvrs0","bigger","manatee","To see how quickly we can react to image sizes","","<div style=""font-size:60px;"">+</div>","null","","","","","","",""
"","501","image-keyboard-response","142","2.0.0","139063","pczzlpcvrs0","bigger","manatee","To see how quickly we can react to image sizes","","stimuli/17-Inongruent.jpg","m","","","","","right","m","true"
"","null","html-keyboard-response","143","2.0.0","139971","pczzlpcvrs0","bigger","manatee","To see how quickly we can react to image sizes","","<p>Correct!</p>","null","","","","","","",""
"","null","html-keyboard-response","144","2.0.0","140987","pczzlpcvrs0","bigger","manatee","To see how quickly we can react to image sizes","","<div style=""font-size:60px;"">+</div>","null","","","","","","",""
"","422","image-keyboard-response","145","2.0.0","141416","pczzlpcvrs0","bigger","manatee","To see how quickly we can react to image sizes","","stimuli/22-Congruent.jpg","z","","","","","left","z","true"
"","null","html-keyboard-response","146","2.0.0","142318","pczzlpcvrs0","bigger","manatee","To see how quickly we can react to image sizes","","<p>Correct!</p>","null","","","","","","",""
"","null","html-keyboard-response","147","2.0.0","143330","pczzlpcvrs0","bigger","manatee","To see how quickly we can react to image sizes","","<div style=""font-size:60px;"">+</div>","null","","","","","","",""
"","428","image-keyboard-response","148","2.0.0","143767","pczzlpcvrs0","bigger","manatee","To see how quickly we can react to image sizes","","stimuli/20-Inongruent.jpg","m","","","","","right","m","true"
"","null","html-keyboard-response","149","2.0.0","144682","pczzlpcvrs0","bigger","manatee","To see how quickly we can react to image sizes","","<p>Correct!</p>","null","","","","","","",""
"","null","html-keyboard-response","150","2.0.0","145690","pczzlpcvrs0","bigger","manatee","To see how quickly we can react to image sizes","","<div style=""font-size:60px;"">+</div>","null","","","","","","",""
"","470","image-keyboard-response","151","2.0.0","146167","pczzlpcvrs0","bigger","manatee","To see how quickly we can react to image sizes","","stimuli/28-Inongruent.jpg","m","","","","","right","m","true"
"","null","html-keyboard-response","152","2.0.0","147081","pczzlpcvrs0","bigger","manatee","To see how quickly we can react to image sizes","","<p>Correct!</p>","null","","","","","","",""
"","null","html-keyboard-response","153","2.0.0","148099","pczzlpcvrs0","bigger","manatee","To see how quickly we can react to image sizes","","<div style=""font-size:60px;"">+</div>","null","","","","","","",""
"","418","image-keyboard-response","154","2.0.0","148525","pczzlpcvrs0","bigger","manatee","To see how quickly we can react to image sizes","","stimuli/1-Congruent.jpg","z","","","","","left","z","true"
"","null","html-keyboard-response","155","2.0.0","149439","pczzlpcvrs0","bigger","manatee","To see how quickly we can react to image sizes","","<p>Correct!</p>","null","","","","","","",""
"","null","html-keyboard-response","156","2.0.0","150445","pczzlpcvrs0","bigger","manatee","To see how quickly we can react to image sizes","","<div style=""font-size:60px;"">+</div>","null","","","","","","",""
"","438","image-keyboard-response","157","2.0.0","150885","pczzlpcvrs0","bigger","manatee","To see how quickly we can react to image sizes","","stimuli/15-Inongruent.jpg","m","","","","","right","m","true"
"","null","html-keyboard-response","158","2.0.0","151789","pczzlpcvrs0","bigger","manatee","To see how quickly we can react to image sizes","","<p>Correct!</p>","null","","","","","","",""
"","null","html-keyboard-response","159","2.0.0","152792","pczzlpcvrs0","bigger","manatee","To see how quickly we can react to image sizes","","<div style=""font-size:60px;"">+</div>","null","","","","","","",""
"","479","image-keyboard-response","160","2.0.0","153275","pczzlpcvrs0","bigger","manatee","To see how quickly we can react to image sizes","","stimuli/1-Congruent.jpg","z","","","","","left","z","true"
"","null","html-keyboard-response","161","2.0.0","154184","pczzlpcvrs0","bigger","manatee","To see how quickly we can react to image sizes","","<p>Correct!</p>","null","","","","","","",""
"","null","html-keyboard-response","162","2.0.0","155190","pczzlpcvrs0","bigger","manatee","To see how quickly we can react to image sizes","","<div style=""font-size:60px;"">+</div>","null","","","","","","",""
"","506","image-keyboard-response","163","2.0.0","155699","pczzlpcvrs0","bigger","manatee","To see how quickly we can react to image sizes","","stimuli/15-Congruent.jpg","z","","","","","left","z","true"
"","null","html-keyboard-response","164","2.0.0","156602","pczzlpcvrs0","bigger","manatee","To see how quickly we can react to image sizes","","<p>Correct!</p>","null","","","","","","",""
"","null","html-keyboard-response","165","2.0.0","157605","pczzlpcvrs0","bigger","manatee","To see how quickly we can react to image sizes","","<div style=""font-size:60px;"">+</div>","null","","","","","","",""
"","543","image-keyboard-response","166","2.0.0","158155","pczzlpcvrs0","bigger","manatee","To see how quickly we can react to image sizes","","stimuli/8-Congruent.jpg","z","","","","","left","z","true"
"","null","html-keyboard-response","167","2.0.0","159061","pczzlpcvrs0","bigger","manatee","To see how quickly we can react to image sizes","","<p>Correct!</p>","null","","","","","","",""
"","null","html-keyboard-response","168","2.0.0","160076","pczzlpcvrs0","bigger","manatee","To see how quickly we can react to image sizes","","<div style=""font-size:60px;"">+</div>","null","","","","","","",""
"","2876","image-keyboard-response","169","2.0.0","162958","pczzlpcvrs0","bigger","manatee","To see how quickly we can react to image sizes","","stimuli/24-Congruent.jpg","z","","","","","left","z","true"
"","null","html-keyboard-response","170","2.0.0","163876","pczzlpcvrs0","bigger","manatee","To see how quickly we can react to image sizes","","<p>Correct!</p>","null","","","","","","",""
"","null","html-keyboard-response","171","2.0.0","164892","pczzlpcvrs0","bigger","manatee","To see how quickly we can react to image sizes","","<div style=""font-size:60px;"">+</div>","null","","","","","","",""
"","1201","image-keyboard-response","172","2.0.0","166098","pczzlpcvrs0","bigger","manatee","To see how quickly we can react to image sizes","","stimuli/24-Congruent.jpg","z","","","","","left","z","true"
"","null","html-keyboard-response","173","2.0.0","167007","pczzlpcvrs0","bigger","manatee","To see how quickly we can react to image sizes","","<p>Correct!</p>","null","","","","","","",""
"","null","html-keyboard-response","174","2.0.0","168025","pczzlpcvrs0","bigger","manatee","To see how quickly we can react to image sizes","","<div style=""font-size:60px;"">+</div>","null","","","","","","",""
"","926","image-keyboard-response","175","2.0.0","168956","pczzlpcvrs0","bigger","manatee","To see how quickly we can react to image sizes","","stimuli/36-Congruent.jpg","z","","","","","left","z","true"
"","null","html-keyboard-response","176","2.0.0","169859","pczzlpcvrs0","bigger","manatee","To see how quickly we can react to image sizes","","<p>Correct!</p>","null","","","","","","",""
"","null","html-keyboard-response","177","2.0.0","170872","pczzlpcvrs0","bigger","manatee","To see how quickly we can react to image sizes","","<div style=""font-size:60px;"">+</div>","null","","","","","","",""
"","630","image-keyboard-response","178","2.0.0","171505","pczzlpcvrs0","bigger","manatee","To see how quickly we can react to image sizes","","stimuli/16-Inongruent.jpg","m","","","","","right","m","true"
"","null","html-keyboard-response","179","2.0.0","172418","pczzlpcvrs0","bigger","manatee","To see how quickly we can react to image sizes","","<p>Correct!</p>","null","","","","","","",""
"","null","html-keyboard-response","180","2.0.0","173428","pczzlpcvrs0","bigger","manatee","To see how quickly we can react to image sizes","","<div style=""font-size:60px;"">+</div>","null","","","","","","",""
"","579","image-keyboard-response","181","2.0.0","174011","pczzlpcvrs0","bigger","manatee","To see how quickly we can react to image sizes","","stimuli/34-Congruent.jpg","z","","","","","left","z","true"
"","null","html-keyboard-response","182","2.0.0","174915","pczzlpcvrs0","bigger","manatee","To see how quickly we can react to image sizes","","<p>Correct!</p>","null","","","","","","",""
"","null","html-keyboard-response","183","2.0.0","175918","pczzlpcvrs0","bigger","manatee","To see how quickly we can react to image sizes","","<div style=""font-size:60px;"">+</div>","null","","","","","","",""
"","661","image-keyboard-response","184","2.0.0","176584","pczzlpcvrs0","bigger","manatee","To see how quickly we can react to image sizes","","stimuli/9-Inongruent.jpg","m","","","","","right","m","true"
"","null","html-keyboard-response","185","2.0.0","177495","pczzlpcvrs0","bigger","manatee","To see how quickly we can react to image sizes","","<p>Correct!</p>","null","","","","","","",""
"","null","html-keyboard-response","186","2.0.0","178510","pczzlpcvrs0","bigger","manatee","To see how quickly we can react to image sizes","","<div style=""font-size:60px;"">+</div>","null","","","","","","",""
"","532","image-keyboard-response","187","2.0.0","179048","pczzlpcvrs0","bigger","manatee","To see how quickly we can react to image sizes","","stimuli/2-Congruent.jpg","z","","","","","left","z","true"
"","null","html-keyboard-response","188","2.0.0","179963","pczzlpcvrs0","bigger","manatee","To see how quickly we can react to image sizes","","<p>Correct!</p>","null","","","","","","",""
"","null","html-keyboard-response","189","2.0.0","180972","pczzlpcvrs0","bigger","manatee","To see how quickly we can react to image sizes","","<div style=""font-size:60px;"">+</div>","null","","","","","","",""
"","561","image-keyboard-response","190","2.0.0","181538","pczzlpcvrs0","bigger","manatee","To see how quickly we can react to image sizes","","stimuli/20-Congruent.jpg","z","","","","","left","z","true"
"","null","html-keyboard-response","191","2.0.0","182455","pczzlpcvrs0","bigger","manatee","To see how quickly we can react to image sizes","","<p>Correct!</p>","null","","","","","","",""
"","null","html-keyboard-response","192","2.0.0","183464","pczzlpcvrs0","bigger","manatee","To see how quickly we can react to image sizes","","<div style=""font-size:60px;"">+</div>","null","","","","","","",""
"","682","image-keyboard-response","193","2.0.0","184151","pczzlpcvrs0","bigger","manatee","To see how quickly we can react to image sizes","","stimuli/28-Congruent.jpg","z","","","","","left","z","true"
"","null","html-keyboard-response","194","2.0.0","185068","pczzlpcvrs0","bigger","manatee","To see how quickly we can react to image sizes","","<p>Correct!</p>","null","","","","","","",""
"","null","html-keyboard-response","195","2.0.0","186083","pczzlpcvrs0","bigger","manatee","To see how quickly we can react to image sizes","","<div style=""font-size:60px;"">+</div>","null","","","","","","",""
"","550","image-keyboard-response","196","2.0.0","186638","pczzlpcvrs0","bigger","manatee","To see how quickly we can react to image sizes","","stimuli/4-Congruent.jpg","z","","","","","left","z","true"
"","null","html-keyboard-response","197","2.0.0","187547","pczzlpcvrs0","bigger","manatee","To see how quickly we can react to image sizes","","<p>Correct!</p>","null","","","","","","",""
"","null","html-keyboard-response","198","2.0.0","188562","pczzlpcvrs0","bigger","manatee","To see how quickly we can react to image sizes","","<div style=""font-size:60px;"">+</div>","null","","","","","","",""
"","584","image-keyboard-response","199","2.0.0","189149","pczzlpcvrs0","bigger","manatee","To see how quickly we can react to image sizes","","stimuli/24-Inongruent.jpg","m","","","","","right","m","true"
"","null","html-keyboard-response","200","2.0.0","190060","pczzlpcvrs0","bigger","manatee","To see how quickly we can react to image sizes","","<p>Correct!</p>","null","","","","","","",""
"","null","html-keyboard-response","201","2.0.0","191072","pczzlpcvrs0","bigger","manatee","To see how quickly we can react to image sizes","","<div style=""font-size:60px;"">+</div>","null","","","","","","",""
"","680","image-keyboard-response","202","2.0.0","191757","pczzlpcvrs0","bigger","manatee","To see how quickly we can react to image sizes","","stimuli/25-Inongruent.jpg","m","","","","","right","m","true"
"","null","html-keyboard-response","203","2.0.0","192660","pczzlpcvrs0","bigger","manatee","To see how quickly we can react to image sizes","","<p>Correct!</p>","null","","","","","","",""
"","null","html-keyboard-response","204","2.0.0","193673","pczzlpcvrs0","bigger","manatee","To see how quickly we can react to image sizes","","<div style=""font-size:60px;"">+</div>","null","","","","","","",""
"","693","image-keyboard-response","205","2.0.0","194371","pczzlpcvrs0","bigger","manatee","To see how quickly we can react to image sizes","","stimuli/19-Congruent.jpg","z","","","","","left","z","true"
"","null","html-keyboard-response","206","2.0.0","195278","pczzlpcvrs0","bigger","manatee","To see how quickly we can react to image sizes","","<p>Correct!</p>","null","","","","","","",""
"","null","html-keyboard-response","207","2.0.0","196289","pczzlpcvrs0","bigger","manatee","To see how quickly we can react to image sizes","","<div style=""font-size:60px;"">+</div>","null","","","","","","",""
"","594","image-keyboard-response","208","2.0.0","196888","pczzlpcvrs0","bigger","manatee","To see how quickly we can react to image sizes","","stimuli/16-Inongruent.jpg","m","","","","","right","m","true"
"","null","html-keyboard-response","209","2.0.0","197797","pczzlpcvrs0","bigger","manatee","To see how quickly we can react to image sizes","","<p>Correct!</p>","null","","","","","","",""
"","null","html-keyboard-response","210","2.0.0","198809","pczzlpcvrs0","bigger","manatee","To see how quickly we can react to image sizes","","<div style=""font-size:60px;"">+</div>","null","","","","","","",""
"","601","image-keyboard-response","211","2.0.0","199416","pczzlpcvrs0","bigger","manatee","To see how quickly we can react to image sizes","","stimuli/5-Congruent.jpg","z","","","","","left","z","true"
"","null","html-keyboard-response","212","2.0.0","200334","pczzlpcvrs0","bigger","manatee","To see how quickly we can react to image sizes","","<p>Correct!</p>","null","","","","","","",""
"","null","html-keyboard-response","213","2.0.0","201347","pczzlpcvrs0","bigger","manatee","To see how quickly we can react to image sizes","","<div style=""font-size:60px;"">+</div>","null","","","","","","",""
"","551","image-keyboard-response","214","2.0.0","201905","pczzlpcvrs0","bigger","manatee","To see how quickly we can react to image sizes","","stimuli/31-Inongruent.jpg","m","","","","","right","m","true"
"","null","html-keyboard-response","215","2.0.0","202813","pczzlpcvrs0","bigger","manatee","To see how quickly we can react to image sizes","","<p>Correct!</p>","null","","","","","","",""
"","null","html-keyboard-response","216","2.0.0","203823","pczzlpcvrs0","bigger","manatee","To see how quickly we can react to image sizes","","<div style=""font-size:60px;"">+</div>","null","","","","","","",""
"","485","image-keyboard-response","217","2.0.0","204312","pczzlpcvrs0","bigger","manatee","To see how quickly we can react to image sizes","","stimuli/16-Congruent.jpg","z","","","","","left","z","true"
"","null","html-keyboard-response","218","2.0.0","205225","pczzlpcvrs0","bigger","manatee","To see how quickly we can react to image sizes","","<p>Correct!</p>","null","","","","","","",""
"","null","html-keyboard-response","219","2.0.0","206237","pczzlpcvrs0","bigger","manatee","To see how quickly we can react to image sizes","","<div style=""font-size:60px;"">+</div>","null","","","","","","",""
"","403","image-keyboard-response","220","2.0.0","206647","pczzlpcvrs0","bigger","manatee","To see how quickly we can react to image sizes","","stimuli/1-Inongruent.jpg","m","","","","","right","m","true"
"","null","html-keyboard-response","221","2.0.0","207567","pczzlpcvrs0","bigger","manatee","To see how quickly we can react to image sizes","","<p>Correct!</p>","null","","","","","","",""
"","null","html-keyboard-response","222","2.0.0","208583","pczzlpcvrs0","bigger","manatee","To see how quickly we can react to image sizes","","<div style=""font-size:60px;"">+</div>","null","","","","","","",""
"","612","image-keyboard-response","223","2.0.0","209202","pczzlpcvrs0","bigger","manatee","To see how quickly we can react to image sizes","","stimuli/11-Inongruent.jpg","m","","","","","right","m","true"
"","null","html-keyboard-response","224","2.0.0","210117","pczzlpcvrs0","bigger","manatee","To see how quickly we can react to image sizes","","<p>Correct!</p>","null","","","","","","",""
"","null","html-keyboard-response","225","2.0.0","211134","pczzlpcvrs0","bigger","manatee","To see how quickly we can react to image sizes","","<div style=""font-size:60px;"">+</div>","null","","","","","","",""
"","475","image-keyboard-response","226","2.0.0","211616","pczzlpcvrs0","bigger","manatee","To see how quickly we can react to image sizes","","stimuli/10-Congruent.jpg","z","","","","","left","z","true"
"","null","html-keyboard-response","227","2.0.0","212522","pczzlpcvrs0","bigger","manatee","To see how quickly we can react to image sizes","","<p>Correct!</p>","null","","","","","","",""
"","null","html-keyboard-response","228","2.0.0","213537","pczzlpcvrs0","bigger","manatee","To see how quickly we can react to image sizes","","<div style=""font-size:60px;"">+</div>","null","","","","","","",""
"","529","image-keyboard-response","229","2.0.0","214072","pczzlpcvrs0","bigger","manatee","To see how quickly we can react to image sizes","","stimuli/13-Inongruent.jpg","m","","","","","right","m","true"
"","null","html-keyboard-response","230","2.0.0","214988","pczzlpcvrs0","bigger","manatee","To see how quickly we can react to image sizes","","<p>Correct!</p>","null","","","","","","",""
"","null","html-keyboard-response","231","2.0.0","215992","pczzlpcvrs0","bigger","manatee","To see how quickly we can react to image sizes","","<div style=""font-size:60px;"">+</div>","null","","","","","","",""
"","585","image-keyboard-response","232","2.0.0","216586","pczzlpcvrs0","bigger","manatee","To see how quickly we can react to image sizes","","stimuli/36-Congruent.jpg","z","","","","","left","z","true"
"","null","html-keyboard-response","233","2.0.0","217500","pczzlpcvrs0","bigger","manatee","To see how quickly we can react to image sizes","","<p>Correct!</p>","null","","","","","","",""
"","null","html-keyboard-response","234","2.0.0","218515","pczzlpcvrs0","bigger","manatee","To see how quickly we can react to image sizes","","<div style=""font-size:60px;"">+</div>","null","","","","","","",""
"","481","image-keyboard-response","235","2.0.0","219001","pczzlpcvrs0","bigger","manatee","To see how quickly we can react to image sizes","","stimuli/5-Inongruent.jpg","m","","","","","right","m","true"
"","null","html-keyboard-response","236","2.0.0","219919","pczzlpcvrs0","bigger","manatee","To see how quickly we can react to image sizes","","<p>Correct!</p>","null","","","","","","",""
"","null","html-keyboard-response","237","2.0.0","220927","pczzlpcvrs0","bigger","manatee","To see how quickly we can react to image sizes","","<div style=""font-size:60px;"">+</div>","null","","","","","","",""
"","497","image-keyboard-response","238","2.0.0","221430","pczzlpcvrs0","bigger","manatee","To see how quickly we can react to image sizes","","stimuli/14-Congruent.jpg","z","","","","","left","z","true"
"","null","html-keyboard-response","239","2.0.0","222333","pczzlpcvrs0","bigger","manatee","To see how quickly we can react to image sizes","","<p>Correct!</p>","null","","","","","","",""
"","null","html-keyboard-response","240","2.0.0","223338","pczzlpcvrs0","bigger","manatee","To see how quickly we can react to image sizes","","<div style=""font-size:60px;"">+</div>","null","","","","","","",""
"","839","image-keyboard-response","241","2.0.0","224182","pczzlpcvrs0","bigger","manatee","To see how quickly we can react to image sizes","","stimuli/22-Inongruent.jpg","m","","","","","right","m","true"
"","null","html-keyboard-response","242","2.0.0","225092","pczzlpcvrs0","bigger","manatee","To see how quickly we can react to image sizes","","<p>Correct!</p>","null","","","","","","",""
"","null","html-keyboard-response","243","2.0.0","226112","pczzlpcvrs0","bigger","manatee","To see how quickly we can react to image sizes","","<div style=""font-size:60px;"">+</div>","null","","","","","","",""
"","574","image-keyboard-response","244","2.0.0","226693","pczzlpcvrs0","bigger","manatee","To see how quickly we can react to image sizes","","stimuli/32-Inongruent.jpg","m","","","","","right","m","true"
"","null","html-keyboard-response","245","2.0.0","227606","pczzlpcvrs0","bigger","manatee","To see how quickly we can react to image sizes","","<p>Correct!</p>","null","","","","","","",""
"","null","html-keyboard-response","246","2.0.0","228620","pczzlpcvrs0","bigger","manatee","To see how quickly we can react to image sizes","","<div style=""font-size:60px;"">+</div>","null","","","","","","",""
"","742","image-keyboard-response","247","2.0.0","229369","pczzlpcvrs0","bigger","manatee","To see how quickly we can react to image sizes","","stimuli/23-Inongruent.jpg","m","","","","","right","m","true"
"","null","html-keyboard-response","248","2.0.0","230276","pczzlpcvrs0","bigger","manatee","To see how quickly we can react to image sizes","","<p>Correct!</p>","null","","","","","","",""
"","null","html-keyboard-response","249","2.0.0","231291","pczzlpcvrs0","bigger","manatee","To see how quickly we can react to image sizes","","<div style=""font-size:60px;"">+</div>","null","","","","","","",""
"","632","image-keyboard-response","250","2.0.0","231930","pczzlpcvrs0","bigger","manatee","To see how quickly we can react to image sizes","","stimuli/21-Congruent.jpg","z","","","","","left","z","true"
"","null","html-keyboard-response","251","2.0.0","232839","pczzlpcvrs0","bigger","manatee","To see how quickly we can react to image sizes","","<p>Correct!</p>","null","","","","","","",""
"","null","html-keyboard-response","252","2.0.0","233856","pczzlpcvrs0","bigger","manatee","To see how quickly we can react to image sizes","","<div style=""font-size:60px;"">+</div>","null","","","","","","",""
"","583","image-keyboard-response","253","2.0.0","234445","pczzlpcvrs0","bigger","manatee","To see how quickly we can react to image sizes","","stimuli/32-Inongruent.jpg","m","","","","","right","m","true"
"","null","html-keyboard-response","254","2.0.0","235362","pczzlpcvrs0","bigger","manatee","To see how quickly we can react to image sizes","","<p>Correct!</p>","null","","","","","","",""
"","null","html-keyboard-response","255","2.0.0","236366","pczzlpcvrs0","bigger","manatee","To see how quickly we can react to image sizes","","<div style=""font-size:60px;"">+</div>","null","","","","","","",""
"","607","image-keyboard-response","256","2.0.0","236980","pczzlpcvrs0","bigger","manatee","To see how quickly we can react to image sizes","","stimuli/36-Inongruent.jpg","m","","","","","right","m","true"
"","null","html-keyboard-response","257","2.0.0","237886","pczzlpcvrs0","bigger","manatee","To see how quickly we can react to image sizes","","<p>Correct!</p>","null","","","","","","",""
"","null","html-keyboard-response","258","2.0.0","238898","pczzlpcvrs0","bigger","manatee","To see how quickly we can react to image sizes","","<div style=""font-size:60px;"">+</div>","null","","","","","","",""
"","436","image-keyboard-response","259","2.0.0","239339","pczzlpcvrs0","bigger","manatee","To see how quickly we can react to image sizes","","stimuli/35-Inongruent.jpg","m","","","","","right","m","true"
"","null","html-keyboard-response","260","2.0.0","240253","pczzlpcvrs0","bigger","manatee","To see how quickly we can react to image sizes","","<p>Correct!</p>","null","","","","","","",""
"","null","html-keyboard-response","261","2.0.0","241271","pczzlpcvrs0","bigger","manatee","To see how quickly we can react to image sizes","","<div style=""font-size:60px;"">+</div>","null","","","","","","",""
"","483","image-keyboard-response","262","2.0.0","241761","pczzlpcvrs0","bigger","manatee","To see how quickly we can react to image sizes","","stimuli/14-Inongruent.jpg","m","","","","","right","m","true"
"","null","html-keyboard-response","263","2.0.0","242680","pczzlpcvrs0","bigger","manatee","To see how quickly we can react to image sizes","","<p>Correct!</p>","null","","","","","","",""
"","null","html-keyboard-response","264","2.0.0","243690","pczzlpcvrs0","bigger","manatee","To see how quickly we can react to image sizes","","<div style=""font-size:60px;"">+</div>","null","","","","","","",""
"","499","image-keyboard-response","265","2.0.0","244195","pczzlpcvrs0","bigger","manatee","To see how quickly we can react to image sizes","","stimuli/28-Inongruent.jpg","m","","","","","right","m","true"
"","null","html-keyboard-response","266","2.0.0","245106","pczzlpcvrs0","bigger","manatee","To see how quickly we can react to image sizes","","<p>Correct!</p>","null","","","","","","",""
"","null","html-keyboard-response","267","2.0.0","246118","pczzlpcvrs0","bigger","manatee","To see how quickly we can react to image sizes","","<div style=""font-size:60px;"">+</div>","null","","","","","","",""
"","563","image-keyboard-response","268","2.0.0","246688","pczzlpcvrs0","bigger","manatee","To see how quickly we can react to image sizes","","stimuli/4-Inongruent.jpg","m","","","","","right","m","true"
"","null","html-keyboard-response","269","2.0.0","247605","pczzlpcvrs0","bigger","manatee","To see how quickly we can react to image sizes","","<p>Correct!</p>","null","","","","","","",""
"","null","html-keyboard-response","270","2.0.0","248612","pczzlpcvrs0","bigger","manatee","To see how quickly we can react to image sizes","","<div style=""font-size:60px;"">+</div>","null","","","","","","",""
"","733","image-keyboard-response","271","2.0.0","249351","pczzlpcvrs0","bigger","manatee","To see how quickly we can react to image sizes","","stimuli/11-Congruent.jpg","z","","","","","left","z","true"
"","null","html-keyboard-response","272","2.0.0","250259","pczzlpcvrs0","bigger","manatee","To see how quickly we can react to image sizes","","<p>Correct!</p>","null","","","","","","",""
"","null","html-keyboard-response","273","2.0.0","251265","pczzlpcvrs0","bigger","manatee","To see how quickly we can react to image sizes","","<div style=""font-size:60px;"">+</div>","null","","","","","","",""
"","517","image-keyboard-response","274","2.0.0","251788","pczzlpcvrs0","bigger","manatee","To see how quickly we can react to image sizes","","stimuli/3-Inongruent.jpg","m","","","","","right","m","true"
"","null","html-keyboard-response","275","2.0.0","252705","pczzlpcvrs0","bigger","manatee","To see how quickly we can react to image sizes","","<p>Correct!</p>","null","","","","","","",""
"","null","html-keyboard-response","276","2.0.0","253709","pczzlpcvrs0","bigger","manatee","To see how quickly we can react to image sizes","","<div style=""font-size:60px;"">+</div>","null","","","","","","",""
"","502","image-keyboard-response","277","2.0.0","254217","pczzlpcvrs0","bigger","manatee","To see how quickly we can react to image sizes","","stimuli/25-Congruent.jpg","z","","","","","left","z","true"
"","null","html-keyboard-response","278","2.0.0","255131","pczzlpcvrs0","bigger","manatee","To see how quickly we can react to image sizes","","<p>Correct!</p>","null","","","","","","",""
"","null","html-keyboard-response","279","2.0.0","256148","pczzlpcvrs0","bigger","manatee","To see how quickly we can react to image sizes","","<div style=""font-size:60px;"">+</div>","null","","","","","","",""
"","564","image-keyboard-response","280","2.0.0","256718","pczzlpcvrs0","bigger","manatee","To see how quickly we can react to image sizes","","stimuli/2-Congruent.jpg","z","","","","","left","z","true"
"","null","html-keyboard-response","281","2.0.0","257636","pczzlpcvrs0","bigger","manatee","To see how quickly we can react to image sizes","","<p>Correct!</p>","null","","","","","","",""
"","null","html-keyboard-response","282","2.0.0","258655","pczzlpcvrs0","bigger","manatee","To see how quickly we can react to image sizes","","<div style=""font-size:60px;"">+</div>","null","","","","","","",""
"","661","image-keyboard-response","283","2.0.0","259325","pczzlpcvrs0","bigger","manatee","To see how quickly we can react to image sizes","","stimuli/18-Congruent.jpg","z","","","","","left","z","true"
"","null","html-keyboard-response","284","2.0.0","260233","pczzlpcvrs0","bigger","manatee","To see how quickly we can react to image sizes","","<p>Correct!</p>","null","","","","","","",""
"","null","html-keyboard-response","285","2.0.0","261245","pczzlpcvrs0","bigger","manatee","To see how quickly we can react to image sizes","","<div style=""font-size:60px;"">+</div>","null","","","","","","",""
"","424","image-keyboard-response","286","2.0.0","261677","pczzlpcvrs0","bigger","manatee","To see how quickly we can react to image sizes","","stimuli/7-Inongruent.jpg","m","","","","","right","m","true"
"","null","html-keyboard-response","287","2.0.0","262582","pczzlpcvrs0","bigger","manatee","To see how quickly we can react to image sizes","","<p>Correct!</p>","null","","","","","","",""
"","null","html-keyboard-response","288","2.0.0","263588","pczzlpcvrs0","bigger","manatee","To see how quickly we can react to image sizes","","<div style=""font-size:60px;"">+</div>","null","","","","","","",""
"","555","image-keyboard-response","289","2.0.0","264147","pczzlpcvrs0","bigger","manatee","To see how quickly we can react to image sizes","","stimuli/28-Congruent.jpg","z","","","","","left","z","true"
"","null","html-keyboard-response","290","2.0.0","265062","pczzlpcvrs0","bigger","manatee","To see how quickly we can react to image sizes","","<p>Correct!</p>","null","","","","","","",""
"","null","html-keyboard-response","291","2.0.0","266073","pczzlpcvrs0","bigger","manatee","To see how quickly we can react to image sizes","","<div style=""font-size:60px;"">+</div>","null","","","","","","",""
"","522","image-keyboard-response","292","2.0.0","266603","pczzlpcvrs0","bigger","manatee","To see how quickly we can react to image sizes","","stimuli/21-Congruent.jpg","z","","","","","left","z","true"
"","null","html-keyboard-response","293","2.0.0","267519","pczzlpcvrs0","bigger","manatee","To see how quickly we can react to image sizes","","<p>Correct!</p>","null","","","","","","",""
"","null","html-keyboard-response","294","2.0.0","268532","pczzlpcvrs0","bigger","manatee","To see how quickly we can react to image sizes","","<div style=""font-size:60px;"">+</div>","null","","","","","","",""
"","446","image-keyboard-response","295","2.0.0","268985","pczzlpcvrs0","bigger","manatee","To see how quickly we can react to image sizes","","stimuli/29-Congruent.jpg","z","","","","","left","z","true"
"","null","html-keyboard-response","296","2.0.0","269893","pczzlpcvrs0","bigger","manatee","To see how quickly we can react to image sizes","","<p>Correct!</p>","null","","","","","","",""
"","null","html-keyboard-response","297","2.0.0","270903","pczzlpcvrs0","bigger","manatee","To see how quickly we can react to image sizes","","<div style=""font-size:60px;"">+</div>","null","","","","","","",""
"","665","image-keyboard-response","298","2.0.0","271576","pczzlpcvrs0","bigger","manatee","To see how quickly we can react to image sizes","","stimuli/36-Inongruent.jpg","m","","","","","right","m","true"
"","null","html-keyboard-response","299","2.0.0","272495","pczzlpcvrs0","bigger","manatee","To see how quickly we can react to image sizes","","<p>Correct!</p>","null","","","","","","",""
"","null","html-keyboard-response","300","2.0.0","273504","pczzlpcvrs0","bigger","manatee","To see how quickly we can react to image sizes","","<div style=""font-size:60px;"">+</div>","null","","","","","","",""
"","592","image-keyboard-response","301","2.0.0","274099","pczzlpcvrs0","bigger","manatee","To see how quickly we can react to image sizes","","stimuli/30-Inongruent.jpg","m","","","","","right","m","true"
"","8","html-keyboard-response","302","2.0.0","274110","pczzlpcvrs0","bigger","manatee","To see how quickly we can react to image sizes","","<p>Correct!</p>","l","","","","","","",""
"","null","html-keyboard-response","303","2.0.0","275122","pczzlpcvrs0","bigger","manatee","To see how quickly we can react to image sizes","","<div style=""font-size:60px;"">+</div>","null","","","","","","",""
"","1359","image-keyboard-response","304","2.0.0","276489","pczzlpcvrs0","bigger","manatee","To see how quickly we can react to image sizes","","stimuli/30-Congruent.jpg","z","","","","","left","z","true"
"","null","html-keyboard-response","305","2.0.0","277409","pczzlpcvrs0","bigger","manatee","To see how quickly we can react to image sizes","","<p>Correct!</p>","null","","","","","","",""
"","null","html-keyboard-response","306","2.0.0","278425","pczzlpcvrs0","bigger","manatee","To see how quickly we can react to image sizes","","<div style=""font-size:60px;"">+</div>","null","","","","","","",""
"","683","image-keyboard-response","307","2.0.0","279113","pczzlpcvrs0","bigger","manatee","To see how quickly we can react to image sizes","","stimuli/8-Inongruent.jpg","m","","","","","right","m","true"
"","null","html-keyboard-response","308","2.0.0","280018","pczzlpcvrs0","bigger","manatee","To see how quickly we can react to image sizes","","<p>Correct!</p>","null","","","","","","",""
"","null","html-keyboard-response","309","2.0.0","281026","pczzlpcvrs0","bigger","manatee","To see how quickly we can react to image sizes","","<div style=""font-size:60px;"">+</div>","null","","","","","","",""
"","667","image-keyboard-response","310","2.0.0","281698","pczzlpcvrs0","bigger","manatee","To see how quickly we can react to image sizes","","stimuli/7-Congruent.jpg","z","","","","","left","z","true"
"","null","html-keyboard-response","311","2.0.0","282612","pczzlpcvrs0","bigger","manatee","To see how quickly we can react to image sizes","","<p>Correct!</p>","null","","","","","","",""
"","null","html-keyboard-response","312","2.0.0","283618","pczzlpcvrs0","bigger","manatee","To see how quickly we can react to image sizes","","<div style=""font-size:60px;"">+</div>","null","","","","","","",""
"","593","image-keyboard-response","313","2.0.0","284217","pczzlpcvrs0","bigger","manatee","To see how quickly we can react to image sizes","","stimuli/5-Congruent.jpg","m","","","","","left","z","false"
"","null","html-keyboard-response","314","2.0.0","289224","pczzlpcvrs0","bigger","manatee","To see how quickly we can react to image sizes","","<p>Incorrect.</p><p>Remember to select the <b>bigger</b> image.</p><p>Continuing in 5 seconds...</p>","null","","","","","","",""
"","null","html-keyboard-response","315","2.0.0","290230","pczzlpcvrs0","bigger","manatee","To see how quickly we can react to image sizes","","<div style=""font-size:60px;"">+</div>","null","","","","","","",""
"","777","image-keyboard-response","316","2.0.0","291013","pczzlpcvrs0","bigger","manatee","To see how quickly we can react to image sizes","","stimuli/18-Inongruent.jpg","m","","","","","right","m","true"
"","null","html-keyboard-response","317","2.0.0","291927","pczzlpcvrs0","bigger","manatee","To see how quickly we can react to image sizes","","<p>Correct!</p>","null","","","","","","",""
"","null","html-keyboard-response","318","2.0.0","292929","pczzlpcvrs0","bigger","manatee","To see how quickly we can react to image sizes","","<div style=""font-size:60px;"">+</div>","null","","","","","","",""
"","777","image-keyboard-response","319","2.0.0","293710","pczzlpcvrs0","bigger","manatee","To see how quickly we can react to image sizes","","stimuli/8-Inongruent.jpg","m","","","","","right","m","true"
"","null","html-keyboard-response","320","2.0.0","294627","pczzlpcvrs0","bigger","manatee","To see how quickly we can react to image sizes","","<p>Correct!</p>","null","","","","","","",""
"","null","html-keyboard-response","321","2.0.0","295645","pczzlpcvrs0","bigger","manatee","To see how quickly we can react to image sizes","","<div style=""font-size:60px;"">+</div>","null","","","","","","",""
"","492","image-keyboard-response","322","2.0.0","296145","pczzlpcvrs0","bigger","manatee","To see how quickly we can react to image sizes","","stimuli/3-Inongruent.jpg","m","","","","","right","m","true"
"","null","html-keyboard-response","323","2.0.0","297064","pczzlpcvrs0","bigger","manatee","To see how quickly we can react to image sizes","","<p>Correct!</p>","null","","","","","","",""
"","null","html-keyboard-response","324","2.0.0","298071","pczzlpcvrs0","bigger","manatee","To see how quickly we can react to image sizes","","<div style=""font-size:60px;"">+</div>","null","","","","","","",""
"","573","image-keyboard-response","325","2.0.0","298649","pczzlpcvrs0","bigger","manatee","To see how quickly we can react to image sizes","","stimuli/5-Inongruent.jpg","m","","","","","right","m","true"
"","null","html-keyboard-response","326","2.0.0","299555","pczzlpcvrs0","bigger","manatee","To see how quickly we can react to image sizes","","<p>Correct!</p>","null","","","","","","",""
"","null","html-keyboard-response","327","2.0.0","300570","pczzlpcvrs0","bigger","manatee","To see how quickly we can react to image sizes","","<div style=""font-size:60px;"">+</div>","null","","","","","","",""
"","483","image-keyboard-response","328","2.0.0","301059","pczzlpcvrs0","bigger","manatee","To see how quickly we can react to image sizes","","stimuli/1-Inongruent.jpg","m","","","","","right","m","true"
"","null","html-keyboard-response","329","2.0.0","301974","pczzlpcvrs0","bigger","manatee","To see how quickly we can react to image sizes","","<p>Correct!</p>","null","","","","","","",""
"","null","html-keyboard-response","330","2.0.0","302993","pczzlpcvrs0","bigger","manatee","To see how quickly we can react to image sizes","","<div style=""font-size:60px;"">+</div>","null","","","","","","",""
"","475","image-keyboard-response","331","2.0.0","303474","pczzlpcvrs0","bigger","manatee","To see how quickly we can react to image sizes","","stimuli/6-Inongruent.jpg","m","","","","","right","m","true"
"","null","html-keyboard-response","332","2.0.0","304386","pczzlpcvrs0","bigger","manatee","To see how quickly we can react to image sizes","","<p>Correct!</p>","null","","","","","","",""
"","null","html-keyboard-response","333","2.0.0","305403","pczzlpcvrs0","bigger","manatee","To see how quickly we can react to image sizes","","<div style=""font-size:60px;"">+</div>","null","","","","","","",""
"","581","image-keyboard-response","334","2.0.0","305995","pczzlpcvrs0","bigger","manatee","To see how quickly we can react to image sizes","","stimuli/34-Inongruent.jpg","m","","","","","right","m","true"
"","null","html-keyboard-response","335","2.0.0","306914","pczzlpcvrs0","bigger","manatee","To see how quickly we can react to image sizes","","<p>Correct!</p>","null","","","","","","",""
"","null","html-keyboard-response","336","2.0.0","307921","pczzlpcvrs0","bigger","manatee","To see how quickly we can react to image sizes","","<div style=""font-size:60px;"">+</div>","null","","","","","","",""
"","451","image-keyboard-response","337","2.0.0","308375","pczzlpcvrs0","bigger","manatee","To see how quickly we can react to image sizes","","stimuli/35-Inongruent.jpg","m","","","","","right","m","true"
"","null","html-keyboard-response","338","2.0.0","309288","pczzlpcvrs0","bigger","manatee","To see how quickly we can react to image sizes","","<p>Correct!</p>","null","","","","","","",""
"","null","html-keyboard-response","339","2.0.0","310296","pczzlpcvrs0","bigger","manatee","To see how quickly we can react to image sizes","","<div style=""font-size:60px;"">+</div>","null","","","","","","",""
"","519","image-keyboard-response","340","2.0.0","310821","pczzlpcvrs0","bigger","manatee","To see how quickly we can react to image sizes","","stimuli/4-Congruent.jpg","z","","","","","left","z","true"
"","null","html-keyboard-response","341","2.0.0","311733","pczzlpcvrs0","bigger","manatee","To see how quickly we can react to image sizes","","<p>Correct!</p>","null","","","","","","",""
"","null","html-keyboard-response","342","2.0.0","312747","pczzlpcvrs0","bigger","manatee","To see how quickly we can react to image sizes","","<div style=""font-size:60px;"">+</div>","null","","","","","","",""
"","481","image-keyboard-response","343","2.0.0","313236","pczzlpcvrs0","bigger","manatee","To see how quickly we can react to image sizes","","stimuli/18-Congruent.jpg","z","","","","","left","z","true"
"","null","html-keyboard-response","344","2.0.0","314153","pczzlpcvrs0","bigger","manatee","To see how quickly we can react to image sizes","","<p>Correct!</p>","null","","","","","","",""
"","null","html-keyboard-response","345","2.0.0","315167","pczzlpcvrs0","bigger","manatee","To see how quickly we can react to image sizes","","<div style=""font-size:60px;"">+</div>","null","","","","","","",""
"","700","image-keyboard-response","346","2.0.0","315874","pczzlpcvrs0","bigger","manatee","To see how quickly we can react to image sizes","","stimuli/9-Congruent.jpg","z","","","","","left","z","true"
"","null","html-keyboard-response","347","2.0.0","316787","pczzlpcvrs0","bigger","manatee","To see how quickly we can react to image sizes","","<p>Correct!</p>","null","","","","","","",""
"","null","html-keyboard-response","348","2.0.0","317792","pczzlpcvrs0","bigger","manatee","To see how quickly we can react to image sizes","","<div style=""font-size:60px;"">+</div>","null","","","","","","",""
"","615","image-keyboard-response","349","2.0.0","318414","pczzlpcvrs0","bigger","manatee","To see how quickly we can react to image sizes","","stimuli/32-Congruent.jpg","z","","","","","left","z","true"
"","null","html-keyboard-response","350","2.0.0","319329","pczzlpcvrs0","bigger","manatee","To see how quickly we can react to image sizes","","<p>Correct!</p>","null","","","","","","",""
"","null","html-keyboard-response","351","2.0.0","320338","pczzlpcvrs0","bigger","manatee","To see how quickly we can react to image sizes","","<div style=""font-size:60px;"">+</div>","null","","","","","","",""
"","489","image-keyboard-response","352","2.0.0","320834","pczzlpcvrs0","bigger","manatee","To see how quickly we can react to image sizes","","stimuli/3-Congruent.jpg","m","","","","","left","z","false"
"","null","html-keyboard-response","353","2.0.0","325843","pczzlpcvrs0","bigger","manatee","To see how quickly we can react to image sizes","","<p>Incorrect.</p><p>Remember to select the <b>bigger</b> image.</p><p>Continuing in 5 seconds...</p>","null","","","","","","",""
"","null","html-keyboard-response","354","2.0.0","326849","pczzlpcvrs0","bigger","manatee","To see how quickly we can react to image sizes","","<div style=""font-size:60px;"">+</div>","null","","","","","","",""
"","656","image-keyboard-response","355","2.0.0","327512","pczzlpcvrs0","bigger","manatee","To see how quickly we can react to image sizes","","stimuli/15-Inongruent.jpg","m","","","","","right","m","true"
"","null","html-keyboard-response","356","2.0.0","328422","pczzlpcvrs0","bigger","manatee","To see how quickly we can react to image sizes","","<p>Correct!</p>","null","","","","","","",""
"","null","html-keyboard-response","357","2.0.0","329441","pczzlpcvrs0","bigger","manatee","To see how quickly we can react to image sizes","","<div style=""font-size:60px;"">+</div>","null","","","","","","",""
"","596","image-keyboard-response","358","2.0.0","330047","pczzlpcvrs0","bigger","manatee","To see how quickly we can react to image sizes","","stimuli/6-Congruent.jpg","z","","","","","left","z","true"
"","null","html-keyboard-response","359","2.0.0","330963","pczzlpcvrs0","bigger","manatee","To see how quickly we can react to image sizes","","<p>Correct!</p>","null","","","","","","",""
"","null","html-keyboard-response","360","2.0.0","331971","pczzlpcvrs0","bigger","manatee","To see how quickly we can react to image sizes","","<div style=""font-size:60px;"">+</div>","null","","","","","","",""
"","829","image-keyboard-response","361","2.0.0","332806","pczzlpcvrs0","bigger","manatee","To see how quickly we can react to image sizes","","stimuli/21-Inongruent.jpg","m","","","","","right","m","true"
"","null","html-keyboard-response","362","2.0.0","333710","pczzlpcvrs0","bigger","manatee","To see how quickly we can react to image sizes","","<p>Correct!</p>","null","","","","","","",""
"","null","html-keyboard-response","363","2.0.0","334716","pczzlpcvrs0","bigger","manatee","To see how quickly we can react to image sizes","","<div style=""font-size:60px;"">+</div>","null","","","","","","",""
"","656","image-keyboard-response","364","2.0.0","335378","pczzlpcvrs0","bigger","manatee","To see how quickly we can react to image sizes","","stimuli/9-Inongruent.jpg","m","","","","","right","m","true"
"","null","html-keyboard-response","365","2.0.0","336287","pczzlpcvrs0","bigger","manatee","To see how quickly we can react to image sizes","","<p>Correct!</p>","null","","","","","","",""
"","null","html-keyboard-response","366","2.0.0","337303","pczzlpcvrs0","bigger","manatee","To see how quickly we can react to image sizes","","<div style=""font-size:60px;"">+</div>","null","","","","","","",""
"","725","image-keyboard-response","367","2.0.0","338035","pczzlpcvrs0","bigger","manatee","To see how quickly we can react to image sizes","","stimuli/29-Inongruent.jpg","m","","","","","right","m","true"
"","null","html-keyboard-response","368","2.0.0","338946","pczzlpcvrs0","bigger","manatee","To see how quickly we can react to image sizes","","<p>Correct!</p>","null","","","","","","",""
"","null","html-keyboard-response","369","2.0.0","339957","pczzlpcvrs0","bigger","manatee","To see how quickly we can react to image sizes","","<div style=""font-size:60px;"">+</div>","null","","","","","","",""
"","1102","image-keyboard-response","370","2.0.0","341067","pczzlpcvrs0","bigger","manatee","To see how quickly we can react to image sizes","","stimuli/17-Congruent.jpg","z","","","","","left","z","true"
"","null","html-keyboard-response","371","2.0.0","341978","pczzlpcvrs0","bigger","manatee","To see how quickly we can react to image sizes","","<p>Correct!</p>","null","","","","","","",""
"","null","html-keyboard-response","372","2.0.0","342994","pczzlpcvrs0","bigger","manatee","To see how quickly we can react to image sizes","","<div style=""font-size:60px;"">+</div>","null","","","","","","",""
"","680","image-keyboard-response","373","2.0.0","343681","pczzlpcvrs0","bigger","manatee","To see how quickly we can react to image sizes","","stimuli/31-Congruent.jpg","z","","","","","left","z","true"
"","null","html-keyboard-response","374","2.0.0","344586","pczzlpcvrs0","bigger","manatee","To see how quickly we can react to image sizes","","<p>Correct!</p>","null","","","","","","",""
"","null","html-keyboard-response","375","2.0.0","345592","pczzlpcvrs0","bigger","manatee","To see how quickly we can react to image sizes","","<div style=""font-size:60px;"">+</div>","null","","","","","","",""
"","1406","image-keyboard-response","376","2.0.0","347006","pczzlpcvrs0","bigger","manatee","To see how quickly we can react to image sizes","","stimuli/26-Congruent.jpg","z","","","","","left","z","true"
"","null","html-keyboard-response","377","2.0.0","347915","pczzlpcvrs0","bigger","manatee","To see how quickly we can react to image sizes","","<p>Correct!</p>","null","","","","","","",""
"","null","html-keyboard-response","378","2.0.0","348921","pczzlpcvrs0","bigger","manatee","To see how quickly we can react to image sizes","","<div style=""font-size:60px;"">+</div>","null","","","","","","",""
"","1346","image-keyboard-response","379","2.0.0","350273","pczzlpcvrs0","bigger","manatee","To see how quickly we can react to image sizes","","stimuli/35-Congruent.jpg","z","","","","","left","z","true"
"","null","html-keyboard-response","380","2.0.0","351192","pczzlpcvrs0","bigger","manatee","To see how quickly we can react to image sizes","","<p>Correct!</p>","null","","","","","","",""
"","null","html-keyboard-response","381","2.0.0","352204","pczzlpcvrs0","bigger","manatee","To see how quickly we can react to image sizes","","<div style=""font-size:60px;"">+</div>","null","","","","","","",""
"","1265","image-keyboard-response","382","2.0.0","353475","pczzlpcvrs0","bigger","manatee","To see how quickly we can react to image sizes","","stimuli/10-Inongruent.jpg","m","","","","","right","m","true"
"","null","html-keyboard-response","383","2.0.0","354384","pczzlpcvrs0","bigger","manatee","To see how quickly we can react to image sizes","","<p>Correct!</p>","null","","","","","","",""
"","null","html-keyboard-response","384","2.0.0","355394","pczzlpcvrs0","bigger","manatee","To see how quickly we can react to image sizes","","<div style=""font-size:60px;"">+</div>","null","","","","","","",""
"","668","image-keyboard-response","385","2.0.0","356068","pczzlpcvrs0","bigger","manatee","To see how quickly we can react to image sizes","","stimuli/23-Congruent.jpg","z","","","","","left","z","true"
"","null","html-keyboard-response","386","2.0.0","356982","pczzlpcvrs0","bigger","manatee","To see how quickly we can react to image sizes","","<p>Correct!</p>","null","","","","","","",""
"","null","html-keyboard-response","387","2.0.0","357990","pczzlpcvrs0","bigger","manatee","To see how quickly we can react to image sizes","","<div style=""font-size:60px;"">+</div>","null","","","","","","",""
"","579","image-keyboard-response","388","2.0.0","358575","pczzlpcvrs0","bigger","manatee","To see how quickly we can react to image sizes","","stimuli/18-Inongruent.jpg","m","","","","","right","m","true"
"","null","html-keyboard-response","389","2.0.0","359482","pczzlpcvrs0","bigger","manatee","To see how quickly we can react to image sizes","","<p>Correct!</p>","null","","","","","","",""
"","null","html-keyboard-response","390","2.0.0","360485","pczzlpcvrs0","bigger","manatee","To see how quickly we can react to image sizes","","<div style=""font-size:60px;"">+</div>","null","","","","","","",""
"","669","image-keyboard-response","391","2.0.0","361160","pczzlpcvrs0","bigger","manatee","To see how quickly we can react to image sizes","","stimuli/27-Inongruent.jpg","m","","","","","right","m","true"
"","null","html-keyboard-response","392","2.0.0","362070","pczzlpcvrs0","bigger","manatee","To see how quickly we can react to image sizes","","<p>Correct!</p>","null","","","","","","",""
"","null","html-keyboard-response","393","2.0.0","363078","pczzlpcvrs0","bigger","manatee","To see how quickly we can react to image sizes","","<div style=""font-size:60px;"">+</div>","null","","","","","","",""
"","511","image-keyboard-response","394","2.0.0","363596","pczzlpcvrs0","bigger","manatee","To see how quickly we can react to image sizes","","stimuli/17-Congruent.jpg","z","","","","","left","z","true"
"","null","html-keyboard-response","395","2.0.0","364514","pczzlpcvrs0","bigger","manatee","To see how quickly we can react to image sizes","","<p>Correct!</p>","null","","","","","","",""
"","null","html-keyboard-response","396","2.0.0","365529","pczzlpcvrs0","bigger","manatee","To see how quickly we can react to image sizes","","<div style=""font-size:60px;"">+</div>","null","","","","","","",""
"","562","image-keyboard-response","397","2.0.0","366098","pczzlpcvrs0","bigger","manatee","To see how quickly we can react to image sizes","","stimuli/27-Congruent.jpg","z","","","","","left","z","true"
"","null","html-keyboard-response","398","2.0.0","367001","pczzlpcvrs0","bigger","manatee","To see how quickly we can react to image sizes","","<p>Correct!</p>","null","","","","","","",""
"","null","html-keyboard-response","399","2.0.0","368006","pczzlpcvrs0","bigger","manatee","To see how quickly we can react to image sizes","","<div style=""font-size:60px;"">+</div>","null","","","","","","",""
"","556","image-keyboard-response","400","2.0.0","368568","pczzlpcvrs0","bigger","manatee","To see how quickly we can react to image sizes","","stimuli/7-Inongruent.jpg","m","","","","","right","m","true"
"","null","html-keyboard-response","401","2.0.0","369473","pczzlpcvrs0","bigger","manatee","To see how quickly we can react to image sizes","","<p>Correct!</p>","null","","","","","","",""
"","null","html-keyboard-response","402","2.0.0","370486","pczzlpcvrs0","bigger","manatee","To see how quickly we can react to image sizes","","<div style=""font-size:60px;"">+</div>","null","","","","","","",""
"","829","image-keyboard-response","403","2.0.0","371322","pczzlpcvrs0","bigger","manatee","To see how quickly we can react to image sizes","","stimuli/33-Inongruent.jpg","m","","","","","right","m","true"
"","null","html-keyboard-response","404","2.0.0","372237","pczzlpcvrs0","bigger","manatee","To see how quickly we can react to image sizes","","<p>Correct!</p>","null","","","","","","",""
"","null","html-keyboard-response","405","2.0.0","373251","pczzlpcvrs0","bigger","manatee","To see how quickly we can react to image sizes","","<div style=""font-size:60px;"">+</div>","null","","","","","","",""
"","502","image-keyboard-response","406","2.0.0","373764","pczzlpcvrs0","bigger","manatee","To see how quickly we can react to image sizes","","stimuli/33-Inongruent.jpg","m","","","","","right","m","true"
"","null","html-keyboard-response","407","2.0.0","374671","pczzlpcvrs0","bigger","manatee","To see how quickly we can react to image sizes","","<p>Correct!</p>","null","","","","","","",""
"","null","html-keyboard-response","408","2.0.0","375679","pczzlpcvrs0","bigger","manatee","To see how quickly we can react to image sizes","","<div style=""font-size:60px;"">+</div>","null","","","","","","",""
"","448","image-keyboard-response","409","2.0.0","376133","pczzlpcvrs0","bigger","manatee","To see how quickly we can react to image sizes","","stimuli/31-Congruent.jpg","z","","","","","left","z","true"
"","null","html-keyboard-response","410","2.0.0","377051","pczzlpcvrs0","bigger","manatee","To see how quickly we can react to image sizes","","<p>Correct!</p>","null","","","","","","",""
"","null","html-keyboard-response","411","2.0.0","378059","pczzlpcvrs0","bigger","manatee","To see how quickly we can react to image sizes","","<div style=""font-size:60px;"">+</div>","null","","","","","","",""
"","1370","image-keyboard-response","412","2.0.0","379436","pczzlpcvrs0","bigger","manatee","To see how quickly we can react to image sizes","","stimuli/19-Congruent.jpg","z","","","","","left","z","true"
"","null","html-keyboard-response","413","2.0.0","380342","pczzlpcvrs0","bigger","manatee","To see how quickly we can react to image sizes","","<p>Correct!</p>","null","","","","","","",""
"","null","html-keyboard-response","414","2.0.0","381361","pczzlpcvrs0","bigger","manatee","To see how quickly we can react to image sizes","","<div style=""font-size:60px;"">+</div>","null","","","","","","",""
"","555","image-keyboard-response","415","2.0.0","381925","pczzlpcvrs0","bigger","manatee","To see how quickly we can react to image sizes","","stimuli/27-Inongruent.jpg","m","","","","","right","m","true"
"","null","html-keyboard-response","416","2.0.0","382834","pczzlpcvrs0","bigger","manatee","To see how quickly we can react to image sizes","","<p>Correct!</p>","null","","","","","","",""
"","null","html-keyboard-response","417","2.0.0","383839","pczzlpcvrs0","bigger","manatee","To see how quickly we can react to image sizes","","<div style=""font-size:60px;"">+</div>","null","","","","","","",""
"","608","image-keyboard-response","418","2.0.0","384454","pczzlpcvrs0","bigger","manatee","To see how quickly we can react to image sizes","","stimuli/31-Inongruent.jpg","m","","","","","right","m","true"
"","null","html-keyboard-response","419","2.0.0","385363","pczzlpcvrs0","bigger","manatee","To see how quickly we can react to image sizes","","<p>Correct!</p>","null","","","","","","",""
"","null","html-keyboard-response","420","2.0.0","386374","pczzlpcvrs0","bigger","manatee","To see how quickly we can react to image sizes","","<div style=""font-size:60px;"">+</div>","null","","","","","","",""
"","578","image-keyboard-response","421","2.0.0","386958","pczzlpcvrs0","bigger","manatee","To see how quickly we can react to image sizes","","stimuli/17-Inongruent.jpg","m","","","","","right","m","true"
"","null","html-keyboard-response","422","2.0.0","387878","pczzlpcvrs0","bigger","manatee","To see how quickly we can react to image sizes","","<p>Correct!</p>","null","","","","","","",""
"","null","html-keyboard-response","423","2.0.0","388884","pczzlpcvrs0","bigger","manatee","To see how quickly we can react to image sizes","","<div style=""font-size:60px;"">+</div>","null","","","","","","",""
"","506","image-keyboard-response","424","2.0.0","389397","pczzlpcvrs0","bigger","manatee","To see how quickly we can react to image sizes","","stimuli/8-Congruent.jpg","z","","","","","left","z","true"
"","null","html-keyboard-response","425","2.0.0","390307","pczzlpcvrs0","bigger","manatee","To see how quickly we can react to image sizes","","<p>Correct!</p>","null","","","","","","",""
"","null","html-keyboard-response","426","2.0.0","391320","pczzlpcvrs0","bigger","manatee","To see how quickly we can react to image sizes","","<div style=""font-size:60px;"">+</div>","null","","","","","","",""
"","581","image-keyboard-response","427","2.0.0","391907","pczzlpcvrs0","bigger","manatee","To see how quickly we can react to image sizes","","stimuli/21-Inongruent.jpg","m","","","","","right","m","true"
"","null","html-keyboard-response","428","2.0.0","392818","pczzlpcvrs0","bigger","manatee","To see how quickly we can react to image sizes","","<p>Correct!</p>","null","","","","","","",""
"","null","html-keyboard-response","429","2.0.0","393826","pczzlpcvrs0","bigger","manatee","To see how quickly we can react to image sizes","","<div style=""font-size:60px;"">+</div>","null","","","","","","",""
"","687","image-keyboard-response","430","2.0.0","394522","pczzlpcvrs0","bigger","manatee","To see how quickly we can react to image sizes","","stimuli/26-Congruent.jpg","z","","","","","left","z","true"
"","null","html-keyboard-response","431","2.0.0","395429","pczzlpcvrs0","bigger","manatee","To see how quickly we can react to image sizes","","<p>Correct!</p>","null","","","","","","",""
"","null","html-keyboard-response","432","2.0.0","396445","pczzlpcvrs0","bigger","manatee","To see how quickly we can react to image sizes","","<div style=""font-size:60px;"">+</div>","null","","","","","","",""
"","923","image-keyboard-response","433","2.0.0","397374","pczzlpcvrs0","bigger","manatee","To see how quickly we can react to image sizes","","stimuli/6-Congruent.jpg","z","","","","","left","z","true"
"","null","html-keyboard-response","434","2.0.0","398284","pczzlpcvrs0","bigger","manatee","To see how quickly we can react to image sizes","","<p>Correct!</p>","null","","","","","","",""
"","null","html-keyboard-response","435","2.0.0","399305","pczzlpcvrs0","bigger","manatee","To see how quickly we can react to image sizes","","<div style=""font-size:60px;"">+</div>","null","","","","","","",""
"","618","image-keyboard-response","436","2.0.0","399929","pczzlpcvrs0","bigger","manatee","To see how quickly we can react to image sizes","","stimuli/29-Congruent.jpg","z","","","","","left","z","true"
"","null","html-keyboard-response","437","2.0.0","400832","pczzlpcvrs0","bigger","manatee","To see how quickly we can react to image sizes","","<p>Correct!</p>","null","","","","","","",""
"","25248","html-keyboard-response","438","2.0.0","426092","pczzlpcvrs0","bigger","manatee","To see how quickly we can react to image sizes","","<p>You have completed the experiment!</p>
              <p>Your accuracy was: 97.91666666666666%.</p>
              <p>Thank you for participating.</p>
              <p>Press any key to continue.</p>","Enter","","","","","","",""
"","17410","survey-text","439","2.0.0","443507","pczzlpcvrs0","bigger","manatee","To see how quickly we can react to image sizes","","","{""participant_thoughts"":""To see how quickly we can react to image sizes""}","","","","","","",""
"","4034","survey-text","440","2.0.0","447546","pczzlpcvrs0","bigger","manatee","To see how quickly we can react to image sizes","","","{""participant_difficulties"":""""}","","","","","","",""
"","5890","html-keyboard-response","441","2.0.0","453439","pczzlpcvrs0","bigger","manatee","To see how quickly we can react to image sizes","","<p>The purpose of this experiment is to determine if the real world size of a familiar object is automatically processed when viewed.</p><p>Thank you for participating!</p>","Enter","","","","","","",""
