"success","rt","trial_type","trial_index","plugin_version","time_elapsed","random_id","condition","participant","participant_thoughts","participant_difficulties","stimulus","response","timeout","failed_images","failed_audio","failed_video","correct_response","correct_response_key","correct"
"true","1691","fullscreen","0","null","2700","pd5pthroaou","bigger","hedgehog","like the stroop experiment but for size","no","","","","","","","","",""
"","1033","html-keyboard-response","1","2.0.0","3735","pd5pthroaou","bigger","hedgehog","like the stroop experiment but for size","no","Welcome to the Size Stroop experiment. Press any key to begin."," ","","","","","","",""
"","null","html-keyboard-response","2","2.0.0","4738","pd5pthroaou","bigger","hedgehog","like the stroop experiment but for size","no","This trial will be in fullscreen mode.","null","","","","","","",""
"","4226","survey-text","3","2.0.0","8975","pd5pthroaou","bigger","hedgehog","like the stroop experiment but for size","no","","{""participant_id"":""hedgehog""}","","","","","","",""
"","5340","html-keyboard-response","4","2.0.0","14318","pd5pthroaou","bigger","hedgehog","like the stroop experiment but for size","no","<p>In this experiment, two images will appear on the screen. Identify the <strong>larger</strong> images.</p>
              <p>If the image on the left is larger, press ""z"". If the image on the right is larger, press ""m"".</p>
              <p>Press any key to begin.</p>"," ","","","","","","",""
"true","","preload","5","2.0.0","15664","pd5pthroaou","bigger","hedgehog","like the stroop experiment but for size","no","","","false","[]","[]","[]","","",""
"","null","html-keyboard-response","6","2.0.0","16672","pd5pthroaou","bigger","hedgehog","like the stroop experiment but for size","no","<div style=""font-size:60px;"">+</div>","null","","","","","","",""
"","1275","image-keyboard-response","7","2.0.0","17953","pd5pthroaou","bigger","hedgehog","like the stroop experiment but for size","no","stimuli/1-Congruent.jpg","z","","","","","left","z","true"
"","null","html-keyboard-response","8","2.0.0","18862","pd5pthroaou","bigger","hedgehog","like the stroop experiment but for size","no","<p>Correct!</p>","null","","","","","","",""
"","null","html-keyboard-response","9","2.0.0","19877","pd5pthroaou","bigger","hedgehog","like the stroop experiment but for size","no","<div style=""font-size:60px;"">+</div>","null","","","","","","",""
"","1372","image-keyboard-response","10","2.0.0","21251","pd5pthroaou","bigger","hedgehog","like the stroop experiment but for size","no","stimuli/24-Inongruent.jpg","z","","","","","right","m","false"
"","null","html-keyboard-response","11","2.0.0","26265","pd5pthroaou","bigger","hedgehog","like the stroop experiment but for size","no","<p>Incorrect.</p><p>Remember to select the <b>bigger</b> image.</p><p>Continuing in 5 seconds...</p>","null","","","","","","",""
"","null","html-keyboard-response","12","2.0.0","27281","pd5pthroaou","bigger","hedgehog","like the stroop experiment but for size","no","<div style=""font-size:60px;"">+</div>","null","","","","","","",""
"","771","image-keyboard-response","13","2.0.0","28054","pd5pthroaou","bigger","hedgehog","like the stroop experiment but for size","no","stimuli/22-Inongruent.jpg","m","","","","","right","m","true"
"","null","html-keyboard-response","14","2.0.0","28968","pd5pthroaou","bigger","hedgehog","like the stroop experiment but for size","no","<p>Correct!</p>","null","","","","","","",""
"","null","html-keyboard-response","15","2.0.0","29984","pd5pthroaou","bigger","hedgehog","like the stroop experiment but for size","no","<div style=""font-size:60px;"">+</div>","null","","","","","","",""
"","957","image-keyboard-response","16","2.0.0","30943","pd5pthroaou","bigger","hedgehog","like the stroop experiment but for size","no","stimuli/10-Inongruent.jpg","m","","","","","right","m","true"
"","null","html-keyboard-response","17","2.0.0","31859","pd5pthroaou","bigger","hedgehog","like the stroop experiment but for size","no","<p>Correct!</p>","null","","","","","","",""
"","null","html-keyboard-response","18","2.0.0","32864","pd5pthroaou","bigger","hedgehog","like the stroop experiment but for size","no","<div style=""font-size:60px;"">+</div>","null","","","","","","",""
"","451","image-keyboard-response","19","2.0.0","33318","pd5pthroaou","bigger","hedgehog","like the stroop experiment but for size","no","stimuli/34-Congruent.jpg","z","","","","","left","z","true"
"","null","html-keyboard-response","20","2.0.0","34227","pd5pthroaou","bigger","hedgehog","like the stroop experiment but for size","no","<p>Correct!</p>","null","","","","","","",""
"","null","html-keyboard-response","21","2.0.0","35230","pd5pthroaou","bigger","hedgehog","like the stroop experiment but for size","no","<div style=""font-size:60px;"">+</div>","null","","","","","","",""
"","478","image-keyboard-response","22","2.0.0","35709","pd5pthroaou","bigger","hedgehog","like the stroop experiment but for size","no","stimuli/16-Inongruent.jpg","m","","","","","right","m","true"
"","null","html-keyboard-response","23","2.0.0","36612","pd5pthroaou","bigger","hedgehog","like the stroop experiment but for size","no","<p>Correct!</p>","null","","","","","","",""
"","null","html-keyboard-response","24","2.0.0","37617","pd5pthroaou","bigger","hedgehog","like the stroop experiment but for size","no","<div style=""font-size:60px;"">+</div>","null","","","","","","",""
"","426","image-keyboard-response","25","2.0.0","38045","pd5pthroaou","bigger","hedgehog","like the stroop experiment but for size","no","stimuli/27-Congruent.jpg","z","","","","","left","z","true"
"","null","html-keyboard-response","26","2.0.0","38955","pd5pthroaou","bigger","hedgehog","like the stroop experiment but for size","no","<p>Correct!</p>","null","","","","","","",""
"","null","html-keyboard-response","27","2.0.0","39960","pd5pthroaou","bigger","hedgehog","like the stroop experiment but for size","no","<div style=""font-size:60px;"">+</div>","null","","","","","","",""
"","410","image-keyboard-response","28","2.0.0","40371","pd5pthroaou","bigger","hedgehog","like the stroop experiment but for size","no","stimuli/16-Congruent.jpg","z","","","","","left","z","true"
"","null","html-keyboard-response","29","2.0.0","41288","pd5pthroaou","bigger","hedgehog","like the stroop experiment but for size","no","<p>Correct!</p>","null","","","","","","",""
"","null","html-keyboard-response","30","2.0.0","42290","pd5pthroaou","bigger","hedgehog","like the stroop experiment but for size","no","<div style=""font-size:60px;"">+</div>","null","","","","","","",""
"","443","image-keyboard-response","31","2.0.0","42735","pd5pthroaou","bigger","hedgehog","like the stroop experiment but for size","no","stimuli/17-Congruent.jpg","z","","","","","left","z","true"
"","null","html-keyboard-response","32","2.0.0","43644","pd5pthroaou","bigger","hedgehog","like the stroop experiment but for size","no","<p>Correct!</p>","null","","","","","","",""
"","null","html-keyboard-response","33","2.0.0","44660","pd5pthroaou","bigger","hedgehog","like the stroop experiment but for size","no","<div style=""font-size:60px;"">+</div>","null","","","","","","",""
"","549","image-keyboard-response","34","2.0.0","45211","pd5pthroaou","bigger","hedgehog","like the stroop experiment but for size","no","stimuli/36-Congruent.jpg","z","","","","","left","z","true"
"","null","html-keyboard-response","35","2.0.0","46128","pd5pthroaou","bigger","hedgehog","like the stroop experiment but for size","no","<p>Correct!</p>","null","","","","","","",""
"","null","html-keyboard-response","36","2.0.0","47130","pd5pthroaou","bigger","hedgehog","like the stroop experiment but for size","no","<div style=""font-size:60px;"">+</div>","null","","","","","","",""
"","409","image-keyboard-response","37","2.0.0","47540","pd5pthroaou","bigger","hedgehog","like the stroop experiment but for size","no","stimuli/1-Congruent.jpg","z","","","","","left","z","true"
"","null","html-keyboard-response","38","2.0.0","48456","pd5pthroaou","bigger","hedgehog","like the stroop experiment but for size","no","<p>Correct!</p>","null","","","","","","",""
"","null","html-keyboard-response","39","2.0.0","49468","pd5pthroaou","bigger","hedgehog","like the stroop experiment but for size","no","<div style=""font-size:60px;"">+</div>","null","","","","","","",""
"","407","image-keyboard-response","40","2.0.0","49877","pd5pthroaou","bigger","hedgehog","like the stroop experiment but for size","no","stimuli/22-Congruent.jpg","z","","","","","left","z","true"
"","null","html-keyboard-response","41","2.0.0","50792","pd5pthroaou","bigger","hedgehog","like the stroop experiment but for size","no","<p>Correct!</p>","null","","","","","","",""
"","null","html-keyboard-response","42","2.0.0","51809","pd5pthroaou","bigger","hedgehog","like the stroop experiment but for size","no","<div style=""font-size:60px;"">+</div>","null","","","","","","",""
"","581","image-keyboard-response","43","2.0.0","52391","pd5pthroaou","bigger","hedgehog","like the stroop experiment but for size","no","stimuli/10-Inongruent.jpg","m","","","","","right","m","true"
"","null","html-keyboard-response","44","2.0.0","53301","pd5pthroaou","bigger","hedgehog","like the stroop experiment but for size","no","<p>Correct!</p>","null","","","","","","",""
"","null","html-keyboard-response","45","2.0.0","54317","pd5pthroaou","bigger","hedgehog","like the stroop experiment but for size","no","<div style=""font-size:60px;"">+</div>","null","","","","","","",""
"","561","image-keyboard-response","46","2.0.0","54879","pd5pthroaou","bigger","hedgehog","like the stroop experiment but for size","no","stimuli/36-Inongruent.jpg","m","","","","","right","m","true"
"","null","html-keyboard-response","47","2.0.0","55795","pd5pthroaou","bigger","hedgehog","like the stroop experiment but for size","no","<p>Correct!</p>","null","","","","","","",""
"","null","html-keyboard-response","48","2.0.0","56810","pd5pthroaou","bigger","hedgehog","like the stroop experiment but for size","no","<div style=""font-size:60px;"">+</div>","null","","","","","","",""
"","467","image-keyboard-response","49","2.0.0","57279","pd5pthroaou","bigger","hedgehog","like the stroop experiment but for size","no","stimuli/17-Congruent.jpg","z","","","","","left","z","true"
"","null","html-keyboard-response","50","2.0.0","58195","pd5pthroaou","bigger","hedgehog","like the stroop experiment but for size","no","<p>Correct!</p>","null","","","","","","",""
"","null","html-keyboard-response","51","2.0.0","59211","pd5pthroaou","bigger","hedgehog","like the stroop experiment but for size","no","<div style=""font-size:60px;"">+</div>","null","","","","","","",""
"","440","image-keyboard-response","52","2.0.0","59653","pd5pthroaou","bigger","hedgehog","like the stroop experiment but for size","no","stimuli/34-Congruent.jpg","z","","","","","left","z","true"
"","null","html-keyboard-response","53","2.0.0","60568","pd5pthroaou","bigger","hedgehog","like the stroop experiment but for size","no","<p>Correct!</p>","null","","","","","","",""
"","null","html-keyboard-response","54","2.0.0","61584","pd5pthroaou","bigger","hedgehog","like the stroop experiment but for size","no","<div style=""font-size:60px;"">+</div>","null","","","","","","",""
"","501","image-keyboard-response","55","2.0.0","62088","pd5pthroaou","bigger","hedgehog","like the stroop experiment but for size","no","stimuli/30-Congruent.jpg","z","","","","","left","z","true"
"","null","html-keyboard-response","56","2.0.0","62993","pd5pthroaou","bigger","hedgehog","like the stroop experiment but for size","no","<p>Correct!</p>","null","","","","","","",""
"","null","html-keyboard-response","57","2.0.0","63996","pd5pthroaou","bigger","hedgehog","like the stroop experiment but for size","no","<div style=""font-size:60px;"">+</div>","null","","","","","","",""
"","444","image-keyboard-response","58","2.0.0","64442","pd5pthroaou","bigger","hedgehog","like the stroop experiment but for size","no","stimuli/1-Inongruent.jpg","m","","","","","right","m","true"
"","null","html-keyboard-response","59","2.0.0","65358","pd5pthroaou","bigger","hedgehog","like the stroop experiment but for size","no","<p>Correct!</p>","null","","","","","","",""
"","null","html-keyboard-response","60","2.0.0","66361","pd5pthroaou","bigger","hedgehog","like the stroop experiment but for size","no","<div style=""font-size:60px;"">+</div>","null","","","","","","",""
"","358","image-keyboard-response","61","2.0.0","66721","pd5pthroaou","bigger","hedgehog","like the stroop experiment but for size","no","stimuli/13-Congruent.jpg","z","","","","","left","z","true"
"","null","html-keyboard-response","62","2.0.0","67637","pd5pthroaou","bigger","hedgehog","like the stroop experiment but for size","no","<p>Correct!</p>","null","","","","","","",""
"","null","html-keyboard-response","63","2.0.0","68639","pd5pthroaou","bigger","hedgehog","like the stroop experiment but for size","no","<div style=""font-size:60px;"">+</div>","null","","","","","","",""
"","518","image-keyboard-response","64","2.0.0","69160","pd5pthroaou","bigger","hedgehog","like the stroop experiment but for size","no","stimuli/21-Inongruent.jpg","z","","","","","right","m","false"
"","685","html-keyboard-response","65","2.0.0","69846","pd5pthroaou","bigger","hedgehog","like the stroop experiment but for size","no","<p>Incorrect.</p><p>Remember to select the <b>bigger</b> image.</p><p>Continuing in 5 seconds...</p>"," ","","","","","","",""
"","null","html-keyboard-response","66","2.0.0","70849","pd5pthroaou","bigger","hedgehog","like the stroop experiment but for size","no","<div style=""font-size:60px;"">+</div>","null","","","","","","",""
"","590","image-keyboard-response","67","2.0.0","71441","pd5pthroaou","bigger","hedgehog","like the stroop experiment but for size","no","stimuli/27-Inongruent.jpg","m","","","","","right","m","true"
"","null","html-keyboard-response","68","2.0.0","72354","pd5pthroaou","bigger","hedgehog","like the stroop experiment but for size","no","<p>Correct!</p>","null","","","","","","",""
"","null","html-keyboard-response","69","2.0.0","73369","pd5pthroaou","bigger","hedgehog","like the stroop experiment but for size","no","<div style=""font-size:60px;"">+</div>","null","","","","","","",""
"","533","image-keyboard-response","70","2.0.0","73903","pd5pthroaou","bigger","hedgehog","like the stroop experiment but for size","no","stimuli/20-Inongruent.jpg","m","","","","","right","m","true"
"","null","html-keyboard-response","71","2.0.0","74819","pd5pthroaou","bigger","hedgehog","like the stroop experiment but for size","no","<p>Correct!</p>","null","","","","","","",""
"","null","html-keyboard-response","72","2.0.0","75823","pd5pthroaou","bigger","hedgehog","like the stroop experiment but for size","no","<div style=""font-size:60px;"">+</div>","null","","","","","","",""
"","557","image-keyboard-response","73","2.0.0","76382","pd5pthroaou","bigger","hedgehog","like the stroop experiment but for size","no","stimuli/3-Inongruent.jpg","m","","","","","right","m","true"
"","null","html-keyboard-response","74","2.0.0","77284","pd5pthroaou","bigger","hedgehog","like the stroop experiment but for size","no","<p>Correct!</p>","null","","","","","","",""
"","null","html-keyboard-response","75","2.0.0","78300","pd5pthroaou","bigger","hedgehog","like the stroop experiment but for size","no","<div style=""font-size:60px;"">+</div>","null","","","","","","",""
"","502","image-keyboard-response","76","2.0.0","78804","pd5pthroaou","bigger","hedgehog","like the stroop experiment but for size","no","stimuli/18-Inongruent.jpg","m","","","","","right","m","true"
"","null","html-keyboard-response","77","2.0.0","79706","pd5pthroaou","bigger","hedgehog","like the stroop experiment but for size","no","<p>Correct!</p>","null","","","","","","",""
"","null","html-keyboard-response","78","2.0.0","80721","pd5pthroaou","bigger","hedgehog","like the stroop experiment but for size","no","<div style=""font-size:60px;"">+</div>","null","","","","","","",""
"","502","image-keyboard-response","79","2.0.0","81225","pd5pthroaou","bigger","hedgehog","like the stroop experiment but for size","no","stimuli/14-Congruent.jpg","z","","","","","left","z","true"
"","null","html-keyboard-response","80","2.0.0","82126","pd5pthroaou","bigger","hedgehog","like the stroop experiment but for size","no","<p>Correct!</p>","null","","","","","","",""
"","null","html-keyboard-response","81","2.0.0","83143","pd5pthroaou","bigger","hedgehog","like the stroop experiment but for size","no","<div style=""font-size:60px;"">+</div>","null","","","","","","",""
"","553","image-keyboard-response","82","2.0.0","83697","pd5pthroaou","bigger","hedgehog","like the stroop experiment but for size","no","stimuli/34-Inongruent.jpg","m","","","","","right","m","true"
"","null","html-keyboard-response","83","2.0.0","84608","pd5pthroaou","bigger","hedgehog","like the stroop experiment but for size","no","<p>Correct!</p>","null","","","","","","",""
"","null","html-keyboard-response","84","2.0.0","85626","pd5pthroaou","bigger","hedgehog","like the stroop experiment but for size","no","<div style=""font-size:60px;"">+</div>","null","","","","","","",""
"","456","image-keyboard-response","85","2.0.0","86084","pd5pthroaou","bigger","hedgehog","like the stroop experiment but for size","no","stimuli/6-Congruent.jpg","z","","","","","left","z","true"
"","null","html-keyboard-response","86","2.0.0","86987","pd5pthroaou","bigger","hedgehog","like the stroop experiment but for size","no","<p>Correct!</p>","null","","","","","","",""
"","null","html-keyboard-response","87","2.0.0","88004","pd5pthroaou","bigger","hedgehog","like the stroop experiment but for size","no","<div style=""font-size:60px;"">+</div>","null","","","","","","",""
"","487","image-keyboard-response","88","2.0.0","88493","pd5pthroaou","bigger","hedgehog","like the stroop experiment but for size","no","stimuli/15-Inongruent.jpg","m","","","","","right","m","true"
"","null","html-keyboard-response","89","2.0.0","89406","pd5pthroaou","bigger","hedgehog","like the stroop experiment but for size","no","<p>Correct!</p>","null","","","","","","",""
"","null","html-keyboard-response","90","2.0.0","90421","pd5pthroaou","bigger","hedgehog","like the stroop experiment but for size","no","<div style=""font-size:60px;"">+</div>","null","","","","","","",""
"","551","image-keyboard-response","91","2.0.0","90974","pd5pthroaou","bigger","hedgehog","like the stroop experiment but for size","no","stimuli/26-Congruent.jpg","z","","","","","left","z","true"
"","null","html-keyboard-response","92","2.0.0","91877","pd5pthroaou","bigger","hedgehog","like the stroop experiment but for size","no","<p>Correct!</p>","null","","","","","","",""
"","null","html-keyboard-response","93","2.0.0","92892","pd5pthroaou","bigger","hedgehog","like the stroop experiment but for size","no","<div style=""font-size:60px;"">+</div>","null","","","","","","",""
"","424","image-keyboard-response","94","2.0.0","93317","pd5pthroaou","bigger","hedgehog","like the stroop experiment but for size","no","stimuli/4-Congruent.jpg","z","","","","","left","z","true"
"","null","html-keyboard-response","95","2.0.0","94234","pd5pthroaou","bigger","hedgehog","like the stroop experiment but for size","no","<p>Correct!</p>","null","","","","","","",""
"","null","html-keyboard-response","96","2.0.0","95237","pd5pthroaou","bigger","hedgehog","like the stroop experiment but for size","no","<div style=""font-size:60px;"">+</div>","null","","","","","","",""
"","484","image-keyboard-response","97","2.0.0","95723","pd5pthroaou","bigger","hedgehog","like the stroop experiment but for size","no","stimuli/25-Congruent.jpg","z","","","","","left","z","true"
"","null","html-keyboard-response","98","2.0.0","96625","pd5pthroaou","bigger","hedgehog","like the stroop experiment but for size","no","<p>Correct!</p>","null","","","","","","",""
"","null","html-keyboard-response","99","2.0.0","97642","pd5pthroaou","bigger","hedgehog","like the stroop experiment but for size","no","<div style=""font-size:60px;"">+</div>","null","","","","","","",""
"","490","image-keyboard-response","100","2.0.0","98133","pd5pthroaou","bigger","hedgehog","like the stroop experiment but for size","no","stimuli/7-Congruent.jpg","z","","","","","left","z","true"
"","null","html-keyboard-response","101","2.0.0","99034","pd5pthroaou","bigger","hedgehog","like the stroop experiment but for size","no","<p>Correct!</p>","null","","","","","","",""
"","null","html-keyboard-response","102","2.0.0","100037","pd5pthroaou","bigger","hedgehog","like the stroop experiment but for size","no","<div style=""font-size:60px;"">+</div>","null","","","","","","",""
"","566","image-keyboard-response","103","2.0.0","100605","pd5pthroaou","bigger","hedgehog","like the stroop experiment but for size","no","stimuli/2-Inongruent.jpg","m","","","","","right","m","true"
"","null","html-keyboard-response","104","2.0.0","101508","pd5pthroaou","bigger","hedgehog","like the stroop experiment but for size","no","<p>Correct!</p>","null","","","","","","",""
"","null","html-keyboard-response","105","2.0.0","102523","pd5pthroaou","bigger","hedgehog","like the stroop experiment but for size","no","<div style=""font-size:60px;"">+</div>","null","","","","","","",""
"","503","image-keyboard-response","106","2.0.0","103028","pd5pthroaou","bigger","hedgehog","like the stroop experiment but for size","no","stimuli/24-Congruent.jpg","z","","","","","left","z","true"
"","null","html-keyboard-response","107","2.0.0","103943","pd5pthroaou","bigger","hedgehog","like the stroop experiment but for size","no","<p>Correct!</p>","null","","","","","","",""
"","null","html-keyboard-response","108","2.0.0","104958","pd5pthroaou","bigger","hedgehog","like the stroop experiment but for size","no","<div style=""font-size:60px;"">+</div>","null","","","","","","",""
"","645","image-keyboard-response","109","2.0.0","105604","pd5pthroaou","bigger","hedgehog","like the stroop experiment but for size","no","stimuli/12-Congruent.jpg","z","","","","","left","z","true"
"","null","html-keyboard-response","110","2.0.0","106520","pd5pthroaou","bigger","hedgehog","like the stroop experiment but for size","no","<p>Correct!</p>","null","","","","","","",""
"","null","html-keyboard-response","111","2.0.0","107535","pd5pthroaou","bigger","hedgehog","like the stroop experiment but for size","no","<div style=""font-size:60px;"">+</div>","null","","","","","","",""
"","497","image-keyboard-response","112","2.0.0","108035","pd5pthroaou","bigger","hedgehog","like the stroop experiment but for size","no","stimuli/23-Congruent.jpg","z","","","","","left","z","true"
"","null","html-keyboard-response","113","2.0.0","108938","pd5pthroaou","bigger","hedgehog","like the stroop experiment but for size","no","<p>Correct!</p>","null","","","","","","",""
"","null","html-keyboard-response","114","2.0.0","109952","pd5pthroaou","bigger","hedgehog","like the stroop experiment but for size","no","<div style=""font-size:60px;"">+</div>","null","","","","","","",""
"","485","image-keyboard-response","115","2.0.0","110439","pd5pthroaou","bigger","hedgehog","like the stroop experiment but for size","no","stimuli/10-Congruent.jpg","z","","","","","left","z","true"
"","null","html-keyboard-response","116","2.0.0","111355","pd5pthroaou","bigger","hedgehog","like the stroop experiment but for size","no","<p>Correct!</p>","null","","","","","","",""
"","null","html-keyboard-response","117","2.0.0","112367","pd5pthroaou","bigger","hedgehog","like the stroop experiment but for size","no","<div style=""font-size:60px;"">+</div>","null","","","","","","",""
"","471","image-keyboard-response","118","2.0.0","112840","pd5pthroaou","bigger","hedgehog","like the stroop experiment but for size","no","stimuli/26-Inongruent.jpg","m","","","","","right","m","true"
"","null","html-keyboard-response","119","2.0.0","113743","pd5pthroaou","bigger","hedgehog","like the stroop experiment but for size","no","<p>Correct!</p>","null","","","","","","",""
"","null","html-keyboard-response","120","2.0.0","114748","pd5pthroaou","bigger","hedgehog","like the stroop experiment but for size","no","<div style=""font-size:60px;"">+</div>","null","","","","","","",""
"","473","image-keyboard-response","121","2.0.0","115222","pd5pthroaou","bigger","hedgehog","like the stroop experiment but for size","no","stimuli/11-Inongruent.jpg","m","","","","","right","m","true"
"","null","html-keyboard-response","122","2.0.0","116128","pd5pthroaou","bigger","hedgehog","like the stroop experiment but for size","no","<p>Correct!</p>","null","","","","","","",""
"","null","html-keyboard-response","123","2.0.0","117136","pd5pthroaou","bigger","hedgehog","like the stroop experiment but for size","no","<div style=""font-size:60px;"">+</div>","null","","","","","","",""
"","640","image-keyboard-response","124","2.0.0","117778","pd5pthroaou","bigger","hedgehog","like the stroop experiment but for size","no","stimuli/24-Inongruent.jpg","m","","","","","right","m","true"
"","null","html-keyboard-response","125","2.0.0","118683","pd5pthroaou","bigger","hedgehog","like the stroop experiment but for size","no","<p>Correct!</p>","null","","","","","","",""
"","null","html-keyboard-response","126","2.0.0","119698","pd5pthroaou","bigger","hedgehog","like the stroop experiment but for size","no","<div style=""font-size:60px;"">+</div>","null","","","","","","",""
"","457","image-keyboard-response","127","2.0.0","120157","pd5pthroaou","bigger","hedgehog","like the stroop experiment but for size","no","stimuli/31-Congruent.jpg","z","","","","","left","z","true"
"","null","html-keyboard-response","128","2.0.0","121069","pd5pthroaou","bigger","hedgehog","like the stroop experiment but for size","no","<p>Correct!</p>","null","","","","","","",""
"","null","html-keyboard-response","129","2.0.0","122072","pd5pthroaou","bigger","hedgehog","like the stroop experiment but for size","no","<div style=""font-size:60px;"">+</div>","null","","","","","","",""
"","552","image-keyboard-response","130","2.0.0","122626","pd5pthroaou","bigger","hedgehog","like the stroop experiment but for size","no","stimuli/3-Congruent.jpg","z","","","","","left","z","true"
"","null","html-keyboard-response","131","2.0.0","123532","pd5pthroaou","bigger","hedgehog","like the stroop experiment but for size","no","<p>Correct!</p>","null","","","","","","",""
"","null","html-keyboard-response","132","2.0.0","124548","pd5pthroaou","bigger","hedgehog","like the stroop experiment but for size","no","<div style=""font-size:60px;"">+</div>","null","","","","","","",""
"","474","image-keyboard-response","133","2.0.0","125023","pd5pthroaou","bigger","hedgehog","like the stroop experiment but for size","no","stimuli/16-Inongruent.jpg","m","","","","","right","m","true"
"","null","html-keyboard-response","134","2.0.0","125940","pd5pthroaou","bigger","hedgehog","like the stroop experiment but for size","no","<p>Correct!</p>","null","","","","","","",""
"","null","html-keyboard-response","135","2.0.0","126947","pd5pthroaou","bigger","hedgehog","like the stroop experiment but for size","no","<div style=""font-size:60px;"">+</div>","null","","","","","","",""
"","533","image-keyboard-response","136","2.0.0","127483","pd5pthroaou","bigger","hedgehog","like the stroop experiment but for size","no","stimuli/33-Congruent.jpg","z","","","","","left","z","true"
"","null","html-keyboard-response","137","2.0.0","128390","pd5pthroaou","bigger","hedgehog","like the stroop experiment but for size","no","<p>Correct!</p>","null","","","","","","",""
"","null","html-keyboard-response","138","2.0.0","129393","pd5pthroaou","bigger","hedgehog","like the stroop experiment but for size","no","<div style=""font-size:60px;"">+</div>","null","","","","","","",""
"","420","image-keyboard-response","139","2.0.0","129814","pd5pthroaou","bigger","hedgehog","like the stroop experiment but for size","no","stimuli/6-Inongruent.jpg","m","","","","","right","m","true"
"","null","html-keyboard-response","140","2.0.0","130722","pd5pthroaou","bigger","hedgehog","like the stroop experiment but for size","no","<p>Correct!</p>","null","","","","","","",""
"","null","html-keyboard-response","141","2.0.0","131724","pd5pthroaou","bigger","hedgehog","like the stroop experiment but for size","no","<div style=""font-size:60px;"">+</div>","null","","","","","","",""
"","547","image-keyboard-response","142","2.0.0","132273","pd5pthroaou","bigger","hedgehog","like the stroop experiment but for size","no","stimuli/36-Inongruent.jpg","m","","","","","right","m","true"
"","null","html-keyboard-response","143","2.0.0","133188","pd5pthroaou","bigger","hedgehog","like the stroop experiment but for size","no","<p>Correct!</p>","null","","","","","","",""
"","null","html-keyboard-response","144","2.0.0","134203","pd5pthroaou","bigger","hedgehog","like the stroop experiment but for size","no","<div style=""font-size:60px;"">+</div>","null","","","","","","",""
"","595","image-keyboard-response","145","2.0.0","134800","pd5pthroaou","bigger","hedgehog","like the stroop experiment but for size","no","stimuli/8-Congruent.jpg","z","","","","","left","z","true"
"","null","html-keyboard-response","146","2.0.0","135706","pd5pthroaou","bigger","hedgehog","like the stroop experiment but for size","no","<p>Correct!</p>","null","","","","","","",""
"","null","html-keyboard-response","147","2.0.0","136708","pd5pthroaou","bigger","hedgehog","like the stroop experiment but for size","no","<div style=""font-size:60px;"">+</div>","null","","","","","","",""
"","505","image-keyboard-response","148","2.0.0","137215","pd5pthroaou","bigger","hedgehog","like the stroop experiment but for size","no","stimuli/36-Congruent.jpg","z","","","","","left","z","true"
"","null","html-keyboard-response","149","2.0.0","138132","pd5pthroaou","bigger","hedgehog","like the stroop experiment but for size","no","<p>Correct!</p>","null","","","","","","",""
"","null","html-keyboard-response","150","2.0.0","139138","pd5pthroaou","bigger","hedgehog","like the stroop experiment but for size","no","<div style=""font-size:60px;"">+</div>","null","","","","","","",""
"","486","image-keyboard-response","151","2.0.0","139626","pd5pthroaou","bigger","hedgehog","like the stroop experiment but for size","no","stimuli/32-Inongruent.jpg","m","","","","","right","m","true"
"","null","html-keyboard-response","152","2.0.0","140534","pd5pthroaou","bigger","hedgehog","like the stroop experiment but for size","no","<p>Correct!</p>","null","","","","","","",""
"","null","html-keyboard-response","153","2.0.0","141540","pd5pthroaou","bigger","hedgehog","like the stroop experiment but for size","no","<div style=""font-size:60px;"">+</div>","null","","","","","","",""
"","438","image-keyboard-response","154","2.0.0","141980","pd5pthroaou","bigger","hedgehog","like the stroop experiment but for size","no","stimuli/19-Congruent.jpg","z","","","","","left","z","true"
"","null","html-keyboard-response","155","2.0.0","142883","pd5pthroaou","bigger","hedgehog","like the stroop experiment but for size","no","<p>Correct!</p>","null","","","","","","",""
"","null","html-keyboard-response","156","2.0.0","143894","pd5pthroaou","bigger","hedgehog","like the stroop experiment but for size","no","<div style=""font-size:60px;"">+</div>","null","","","","","","",""
"","392","image-keyboard-response","157","2.0.0","144288","pd5pthroaou","bigger","hedgehog","like the stroop experiment but for size","no","stimuli/5-Inongruent.jpg","m","","","","","right","m","true"
"","null","html-keyboard-response","158","2.0.0","145192","pd5pthroaou","bigger","hedgehog","like the stroop experiment but for size","no","<p>Correct!</p>","null","","","","","","",""
"","null","html-keyboard-response","159","2.0.0","146196","pd5pthroaou","bigger","hedgehog","like the stroop experiment but for size","no","<div style=""font-size:60px;"">+</div>","null","","","","","","",""
"","546","image-keyboard-response","160","2.0.0","146744","pd5pthroaou","bigger","hedgehog","like the stroop experiment but for size","no","stimuli/11-Congruent.jpg","z","","","","","left","z","true"
"","null","html-keyboard-response","161","2.0.0","147656","pd5pthroaou","bigger","hedgehog","like the stroop experiment but for size","no","<p>Correct!</p>","null","","","","","","",""
"","null","html-keyboard-response","162","2.0.0","148659","pd5pthroaou","bigger","hedgehog","like the stroop experiment but for size","no","<div style=""font-size:60px;"">+</div>","null","","","","","","",""
"","601","image-keyboard-response","163","2.0.0","149261","pd5pthroaou","bigger","hedgehog","like the stroop experiment but for size","no","stimuli/5-Congruent.jpg","z","","","","","left","z","true"
"","null","html-keyboard-response","164","2.0.0","150177","pd5pthroaou","bigger","hedgehog","like the stroop experiment but for size","no","<p>Correct!</p>","null","","","","","","",""
"","null","html-keyboard-response","165","2.0.0","151190","pd5pthroaou","bigger","hedgehog","like the stroop experiment but for size","no","<div style=""font-size:60px;"">+</div>","null","","","","","","",""
"","455","image-keyboard-response","166","2.0.0","151647","pd5pthroaou","bigger","hedgehog","like the stroop experiment but for size","no","stimuli/28-Inongruent.jpg","m","","","","","right","m","true"
"","null","html-keyboard-response","167","2.0.0","152561","pd5pthroaou","bigger","hedgehog","like the stroop experiment but for size","no","<p>Correct!</p>","null","","","","","","",""
"","null","html-keyboard-response","168","2.0.0","153575","pd5pthroaou","bigger","hedgehog","like the stroop experiment but for size","no","<div style=""font-size:60px;"">+</div>","null","","","","","","",""
"","436","image-keyboard-response","169","2.0.0","154012","pd5pthroaou","bigger","hedgehog","like the stroop experiment but for size","no","stimuli/9-Congruent.jpg","z","","","","","left","z","true"
"","null","html-keyboard-response","170","2.0.0","154920","pd5pthroaou","bigger","hedgehog","like the stroop experiment but for size","no","<p>Correct!</p>","null","","","","","","",""
"","null","html-keyboard-response","171","2.0.0","155935","pd5pthroaou","bigger","hedgehog","like the stroop experiment but for size","no","<div style=""font-size:60px;"">+</div>","null","","","","","","",""
"","420","image-keyboard-response","172","2.0.0","156357","pd5pthroaou","bigger","hedgehog","like the stroop experiment but for size","no","stimuli/32-Inongruent.jpg","m","","","","","right","m","true"
"","null","html-keyboard-response","173","2.0.0","157273","pd5pthroaou","bigger","hedgehog","like the stroop experiment but for size","no","<p>Correct!</p>","null","","","","","","",""
"","null","html-keyboard-response","174","2.0.0","158287","pd5pthroaou","bigger","hedgehog","like the stroop experiment but for size","no","<div style=""font-size:60px;"">+</div>","null","","","","","","",""
"","436","image-keyboard-response","175","2.0.0","158724","pd5pthroaou","bigger","hedgehog","like the stroop experiment but for size","no","stimuli/1-Inongruent.jpg","m","","","","","right","m","true"
"","null","html-keyboard-response","176","2.0.0","159632","pd5pthroaou","bigger","hedgehog","like the stroop experiment but for size","no","<p>Correct!</p>","null","","","","","","",""
"","null","html-keyboard-response","177","2.0.0","160647","pd5pthroaou","bigger","hedgehog","like the stroop experiment but for size","no","<div style=""font-size:60px;"">+</div>","null","","","","","","",""
"","456","image-keyboard-response","178","2.0.0","161104","pd5pthroaou","bigger","hedgehog","like the stroop experiment but for size","no","stimuli/32-Congruent.jpg","z","","","","","left","z","true"
"","null","html-keyboard-response","179","2.0.0","162010","pd5pthroaou","bigger","hedgehog","like the stroop experiment but for size","no","<p>Correct!</p>","null","","","","","","",""
"","null","html-keyboard-response","180","2.0.0","163018","pd5pthroaou","bigger","hedgehog","like the stroop experiment but for size","no","<div style=""font-size:60px;"">+</div>","null","","","","","","",""
"","406","image-keyboard-response","181","2.0.0","163426","pd5pthroaou","bigger","hedgehog","like the stroop experiment but for size","no","stimuli/14-Inongruent.jpg","m","","","","","right","m","true"
"","null","html-keyboard-response","182","2.0.0","164334","pd5pthroaou","bigger","hedgehog","like the stroop experiment but for size","no","<p>Correct!</p>","null","","","","","","",""
"","null","html-keyboard-response","183","2.0.0","165350","pd5pthroaou","bigger","hedgehog","like the stroop experiment but for size","no","<div style=""font-size:60px;"">+</div>","null","","","","","","",""
"","485","image-keyboard-response","184","2.0.0","165837","pd5pthroaou","bigger","hedgehog","like the stroop experiment but for size","no","stimuli/31-Inongruent.jpg","m","","","","","right","m","true"
"","null","html-keyboard-response","185","2.0.0","166752","pd5pthroaou","bigger","hedgehog","like the stroop experiment but for size","no","<p>Correct!</p>","null","","","","","","",""
"","null","html-keyboard-response","186","2.0.0","167767","pd5pthroaou","bigger","hedgehog","like the stroop experiment but for size","no","<div style=""font-size:60px;"">+</div>","null","","","","","","",""
"","469","image-keyboard-response","187","2.0.0","168238","pd5pthroaou","bigger","hedgehog","like the stroop experiment but for size","no","stimuli/12-Inongruent.jpg","m","","","","","right","m","true"
"","null","html-keyboard-response","188","2.0.0","169154","pd5pthroaou","bigger","hedgehog","like the stroop experiment but for size","no","<p>Correct!</p>","null","","","","","","",""
"","null","html-keyboard-response","189","2.0.0","170168","pd5pthroaou","bigger","hedgehog","like the stroop experiment but for size","no","<div style=""font-size:60px;"">+</div>","null","","","","","","",""
"","537","image-keyboard-response","190","2.0.0","170707","pd5pthroaou","bigger","hedgehog","like the stroop experiment but for size","no","stimuli/31-Inongruent.jpg","m","","","","","right","m","true"
"","null","html-keyboard-response","191","2.0.0","171612","pd5pthroaou","bigger","hedgehog","like the stroop experiment but for size","no","<p>Correct!</p>","null","","","","","","",""
"","null","html-keyboard-response","192","2.0.0","172624","pd5pthroaou","bigger","hedgehog","like the stroop experiment but for size","no","<div style=""font-size:60px;"">+</div>","null","","","","","","",""
"","439","image-keyboard-response","193","2.0.0","173065","pd5pthroaou","bigger","hedgehog","like the stroop experiment but for size","no","stimuli/13-Congruent.jpg","z","","","","","left","z","true"
"","null","html-keyboard-response","194","2.0.0","173980","pd5pthroaou","bigger","hedgehog","like the stroop experiment but for size","no","<p>Correct!</p>","null","","","","","","",""
"","null","html-keyboard-response","195","2.0.0","174983","pd5pthroaou","bigger","hedgehog","like the stroop experiment but for size","no","<div style=""font-size:60px;"">+</div>","null","","","","","","",""
"","472","image-keyboard-response","196","2.0.0","175458","pd5pthroaou","bigger","hedgehog","like the stroop experiment but for size","no","stimuli/25-Congruent.jpg","z","","","","","left","z","true"
"","null","html-keyboard-response","197","2.0.0","176361","pd5pthroaou","bigger","hedgehog","like the stroop experiment but for size","no","<p>Correct!</p>","null","","","","","","",""
"","null","html-keyboard-response","198","2.0.0","177365","pd5pthroaou","bigger","hedgehog","like the stroop experiment but for size","no","<div style=""font-size:60px;"">+</div>","null","","","","","","",""
"","423","image-keyboard-response","199","2.0.0","177790","pd5pthroaou","bigger","hedgehog","like the stroop experiment but for size","no","stimuli/2-Congruent.jpg","z","","","","","left","z","true"
"","null","html-keyboard-response","200","2.0.0","178693","pd5pthroaou","bigger","hedgehog","like the stroop experiment but for size","no","<p>Correct!</p>","null","","","","","","",""
"","null","html-keyboard-response","201","2.0.0","179697","pd5pthroaou","bigger","hedgehog","like the stroop experiment but for size","no","<div style=""font-size:60px;"">+</div>","null","","","","","","",""
"","516","image-keyboard-response","202","2.0.0","180215","pd5pthroaou","bigger","hedgehog","like the stroop experiment but for size","no","stimuli/15-Congruent.jpg","z","","","","","left","z","true"
"","null","html-keyboard-response","203","2.0.0","181117","pd5pthroaou","bigger","hedgehog","like the stroop experiment but for size","no","<p>Correct!</p>","null","","","","","","",""
"","null","html-keyboard-response","204","2.0.0","182134","pd5pthroaou","bigger","hedgehog","like the stroop experiment but for size","no","<div style=""font-size:60px;"">+</div>","null","","","","","","",""
"","451","image-keyboard-response","205","2.0.0","182586","pd5pthroaou","bigger","hedgehog","like the stroop experiment but for size","no","stimuli/14-Congruent.jpg","z","","","","","left","z","true"
"","null","html-keyboard-response","206","2.0.0","183490","pd5pthroaou","bigger","hedgehog","like the stroop experiment but for size","no","<p>Correct!</p>","null","","","","","","",""
"","null","html-keyboard-response","207","2.0.0","184503","pd5pthroaou","bigger","hedgehog","like the stroop experiment but for size","no","<div style=""font-size:60px;"">+</div>","null","","","","","","",""
"","640","image-keyboard-response","208","2.0.0","185144","pd5pthroaou","bigger","hedgehog","like the stroop experiment but for size","no","stimuli/33-Inongruent.jpg","m","","","","","right","m","true"
"","null","html-keyboard-response","209","2.0.0","186059","pd5pthroaou","bigger","hedgehog","like the stroop experiment but for size","no","<p>Correct!</p>","null","","","","","","",""
"","null","html-keyboard-response","210","2.0.0","187071","pd5pthroaou","bigger","hedgehog","like the stroop experiment but for size","no","<div style=""font-size:60px;"">+</div>","null","","","","","","",""
"","550","image-keyboard-response","211","2.0.0","187622","pd5pthroaou","bigger","hedgehog","like the stroop experiment but for size","no","stimuli/20-Congruent.jpg","z","","","","","left","z","true"
"","null","html-keyboard-response","212","2.0.0","188538","pd5pthroaou","bigger","hedgehog","like the stroop experiment but for size","no","<p>Correct!</p>","null","","","","","","",""
"","null","html-keyboard-response","213","2.0.0","189552","pd5pthroaou","bigger","hedgehog","like the stroop experiment but for size","no","<div style=""font-size:60px;"">+</div>","null","","","","","","",""
"","439","image-keyboard-response","214","2.0.0","189992","pd5pthroaou","bigger","hedgehog","like the stroop experiment but for size","no","stimuli/6-Congruent.jpg","z","","","","","left","z","true"
"","null","html-keyboard-response","215","2.0.0","190895","pd5pthroaou","bigger","hedgehog","like the stroop experiment but for size","no","<p>Correct!</p>","null","","","","","","",""
"","null","html-keyboard-response","216","2.0.0","191910","pd5pthroaou","bigger","hedgehog","like the stroop experiment but for size","no","<div style=""font-size:60px;"">+</div>","null","","","","","","",""
"","548","image-keyboard-response","217","2.0.0","192459","pd5pthroaou","bigger","hedgehog","like the stroop experiment but for size","no","stimuli/18-Inongruent.jpg","m","","","","","right","m","true"
"","null","html-keyboard-response","218","2.0.0","193361","pd5pthroaou","bigger","hedgehog","like the stroop experiment but for size","no","<p>Correct!</p>","null","","","","","","",""
"","null","html-keyboard-response","219","2.0.0","194366","pd5pthroaou","bigger","hedgehog","like the stroop experiment but for size","no","<div style=""font-size:60px;"">+</div>","null","","","","","","",""
"","499","image-keyboard-response","220","2.0.0","194866","pd5pthroaou","bigger","hedgehog","like the stroop experiment but for size","no","stimuli/29-Congruent.jpg","z","","","","","left","z","true"
"","null","html-keyboard-response","221","2.0.0","195772","pd5pthroaou","bigger","hedgehog","like the stroop experiment but for size","no","<p>Correct!</p>","null","","","","","","",""
"","null","html-keyboard-response","222","2.0.0","196778","pd5pthroaou","bigger","hedgehog","like the stroop experiment but for size","no","<div style=""font-size:60px;"">+</div>","null","","","","","","",""
"","380","image-keyboard-response","223","2.0.0","197159","pd5pthroaou","bigger","hedgehog","like the stroop experiment but for size","no","stimuli/3-Inongruent.jpg","m","","","","","right","m","true"
"","null","html-keyboard-response","224","2.0.0","198075","pd5pthroaou","bigger","hedgehog","like the stroop experiment but for size","no","<p>Correct!</p>","null","","","","","","",""
"","null","html-keyboard-response","225","2.0.0","199088","pd5pthroaou","bigger","hedgehog","like the stroop experiment but for size","no","<div style=""font-size:60px;"">+</div>","null","","","","","","",""
"","500","image-keyboard-response","226","2.0.0","199589","pd5pthroaou","bigger","hedgehog","like the stroop experiment but for size","no","stimuli/5-Congruent.jpg","z","","","","","left","z","true"
"","null","html-keyboard-response","227","2.0.0","200491","pd5pthroaou","bigger","hedgehog","like the stroop experiment but for size","no","<p>Correct!</p>","null","","","","","","",""
"","null","html-keyboard-response","228","2.0.0","201507","pd5pthroaou","bigger","hedgehog","like the stroop experiment but for size","no","<div style=""font-size:60px;"">+</div>","null","","","","","","",""
"","443","image-keyboard-response","229","2.0.0","201952","pd5pthroaou","bigger","hedgehog","like the stroop experiment but for size","no","stimuli/15-Congruent.jpg","z","","","","","left","z","true"
"","null","html-keyboard-response","230","2.0.0","202868","pd5pthroaou","bigger","hedgehog","like the stroop experiment but for size","no","<p>Correct!</p>","null","","","","","","",""
"","null","html-keyboard-response","231","2.0.0","203874","pd5pthroaou","bigger","hedgehog","like the stroop experiment but for size","no","<div style=""font-size:60px;"">+</div>","null","","","","","","",""
"","468","image-keyboard-response","232","2.0.0","204344","pd5pthroaou","bigger","hedgehog","like the stroop experiment but for size","no","stimuli/29-Inongruent.jpg","m","","","","","right","m","true"
"","null","html-keyboard-response","233","2.0.0","205248","pd5pthroaou","bigger","hedgehog","like the stroop experiment but for size","no","<p>Correct!</p>","null","","","","","","",""
"","null","html-keyboard-response","234","2.0.0","206265","pd5pthroaou","bigger","hedgehog","like the stroop experiment but for size","no","<div style=""font-size:60px;"">+</div>","null","","","","","","",""
"","489","image-keyboard-response","235","2.0.0","206755","pd5pthroaou","bigger","hedgehog","like the stroop experiment but for size","no","stimuli/18-Congruent.jpg","z","","","","","left","z","true"
"","null","html-keyboard-response","236","2.0.0","207660","pd5pthroaou","bigger","hedgehog","like the stroop experiment but for size","no","<p>Correct!</p>","null","","","","","","",""
"","null","html-keyboard-response","237","2.0.0","208665","pd5pthroaou","bigger","hedgehog","like the stroop experiment but for size","no","<div style=""font-size:60px;"">+</div>","null","","","","","","",""
"","503","image-keyboard-response","238","2.0.0","209170","pd5pthroaou","bigger","hedgehog","like the stroop experiment but for size","no","stimuli/28-Congruent.jpg","z","","","","","left","z","true"
"","null","html-keyboard-response","239","2.0.0","210078","pd5pthroaou","bigger","hedgehog","like the stroop experiment but for size","no","<p>Correct!</p>","null","","","","","","",""
"","null","html-keyboard-response","240","2.0.0","211095","pd5pthroaou","bigger","hedgehog","like the stroop experiment but for size","no","<div style=""font-size:60px;"">+</div>","null","","","","","","",""
"","533","image-keyboard-response","241","2.0.0","211629","pd5pthroaou","bigger","hedgehog","like the stroop experiment but for size","no","stimuli/9-Congruent.jpg","z","","","","","left","z","true"
"","null","html-keyboard-response","242","2.0.0","212543","pd5pthroaou","bigger","hedgehog","like the stroop experiment but for size","no","<p>Correct!</p>","null","","","","","","",""
"","null","html-keyboard-response","243","2.0.0","213558","pd5pthroaou","bigger","hedgehog","like the stroop experiment but for size","no","<div style=""font-size:60px;"">+</div>","null","","","","","","",""
"","437","image-keyboard-response","244","2.0.0","213997","pd5pthroaou","bigger","hedgehog","like the stroop experiment but for size","no","stimuli/2-Congruent.jpg","z","","","","","left","z","true"
"","null","html-keyboard-response","245","2.0.0","214900","pd5pthroaou","bigger","hedgehog","like the stroop experiment but for size","no","<p>Correct!</p>","null","","","","","","",""
"","null","html-keyboard-response","246","2.0.0","215915","pd5pthroaou","bigger","hedgehog","like the stroop experiment but for size","no","<div style=""font-size:60px;"">+</div>","null","","","","","","",""
"","828","image-keyboard-response","247","2.0.0","216745","pd5pthroaou","bigger","hedgehog","like the stroop experiment but for size","no","stimuli/20-Inongruent.jpg","m","","","","","right","m","true"
"","null","html-keyboard-response","248","2.0.0","217649","pd5pthroaou","bigger","hedgehog","like the stroop experiment but for size","no","<p>Correct!</p>","null","","","","","","",""
"","null","html-keyboard-response","249","2.0.0","218661","pd5pthroaou","bigger","hedgehog","like the stroop experiment but for size","no","<div style=""font-size:60px;"">+</div>","null","","","","","","",""
"","673","image-keyboard-response","250","2.0.0","219336","pd5pthroaou","bigger","hedgehog","like the stroop experiment but for size","no","stimuli/30-Inongruent.jpg","m","","","","","right","m","true"
"","null","html-keyboard-response","251","2.0.0","220247","pd5pthroaou","bigger","hedgehog","like the stroop experiment but for size","no","<p>Correct!</p>","null","","","","","","",""
"","null","html-keyboard-response","252","2.0.0","221263","pd5pthroaou","bigger","hedgehog","like the stroop experiment but for size","no","<div style=""font-size:60px;"">+</div>","null","","","","","","",""
"","752","image-keyboard-response","253","2.0.0","222017","pd5pthroaou","bigger","hedgehog","like the stroop experiment but for size","no","stimuli/25-Inongruent.jpg","m","","","","","right","m","true"
"","null","html-keyboard-response","254","2.0.0","222922","pd5pthroaou","bigger","hedgehog","like the stroop experiment but for size","no","<p>Correct!</p>","null","","","","","","",""
"","null","html-keyboard-response","255","2.0.0","223934","pd5pthroaou","bigger","hedgehog","like the stroop experiment but for size","no","<div style=""font-size:60px;"">+</div>","null","","","","","","",""
"","422","image-keyboard-response","256","2.0.0","224358","pd5pthroaou","bigger","hedgehog","like the stroop experiment but for size","no","stimuli/23-Inongruent.jpg","m","","","","","right","m","true"
"","null","html-keyboard-response","257","2.0.0","225261","pd5pthroaou","bigger","hedgehog","like the stroop experiment but for size","no","<p>Correct!</p>","null","","","","","","",""
"","null","html-keyboard-response","258","2.0.0","226274","pd5pthroaou","bigger","hedgehog","like the stroop experiment but for size","no","<div style=""font-size:60px;"">+</div>","null","","","","","","",""
"","468","image-keyboard-response","259","2.0.0","226744","pd5pthroaou","bigger","hedgehog","like the stroop experiment but for size","no","stimuli/10-Congruent.jpg","z","","","","","left","z","true"
"","null","html-keyboard-response","260","2.0.0","227649","pd5pthroaou","bigger","hedgehog","like the stroop experiment but for size","no","<p>Correct!</p>","null","","","","","","",""
"","null","html-keyboard-response","261","2.0.0","228651","pd5pthroaou","bigger","hedgehog","like the stroop experiment but for size","no","<div style=""font-size:60px;"">+</div>","null","","","","","","",""
"","427","image-keyboard-response","262","2.0.0","229080","pd5pthroaou","bigger","hedgehog","like the stroop experiment but for size","no","stimuli/25-Inongruent.jpg","m","","","","","right","m","true"
"","null","html-keyboard-response","263","2.0.0","229986","pd5pthroaou","bigger","hedgehog","like the stroop experiment but for size","no","<p>Correct!</p>","null","","","","","","",""
"","null","html-keyboard-response","264","2.0.0","230992","pd5pthroaou","bigger","hedgehog","like the stroop experiment but for size","no","<div style=""font-size:60px;"">+</div>","null","","","","","","",""
"","483","image-keyboard-response","265","2.0.0","231476","pd5pthroaou","bigger","hedgehog","like the stroop experiment but for size","no","stimuli/9-Inongruent.jpg","m","","","","","right","m","true"
"","null","html-keyboard-response","266","2.0.0","232379","pd5pthroaou","bigger","hedgehog","like the stroop experiment but for size","no","<p>Correct!</p>","null","","","","","","",""
"","null","html-keyboard-response","267","2.0.0","233382","pd5pthroaou","bigger","hedgehog","like the stroop experiment but for size","no","<div style=""font-size:60px;"">+</div>","null","","","","","","",""
"","520","image-keyboard-response","268","2.0.0","233903","pd5pthroaou","bigger","hedgehog","like the stroop experiment but for size","no","stimuli/27-Congruent.jpg","z","","","","","left","z","true"
"","null","html-keyboard-response","269","2.0.0","234805","pd5pthroaou","bigger","hedgehog","like the stroop experiment but for size","no","<p>Correct!</p>","null","","","","","","",""
"","null","html-keyboard-response","270","2.0.0","235820","pd5pthroaou","bigger","hedgehog","like the stroop experiment but for size","no","<div style=""font-size:60px;"">+</div>","null","","","","","","",""
"","440","image-keyboard-response","271","2.0.0","236262","pd5pthroaou","bigger","hedgehog","like the stroop experiment but for size","no","stimuli/24-Congruent.jpg","z","","","","","left","z","true"
"","null","html-keyboard-response","272","2.0.0","237176","pd5pthroaou","bigger","hedgehog","like the stroop experiment but for size","no","<p>Correct!</p>","null","","","","","","",""
"","null","html-keyboard-response","273","2.0.0","238190","pd5pthroaou","bigger","hedgehog","like the stroop experiment but for size","no","<div style=""font-size:60px;"">+</div>","null","","","","","","",""
"","438","image-keyboard-response","274","2.0.0","238630","pd5pthroaou","bigger","hedgehog","like the stroop experiment but for size","no","stimuli/21-Congruent.jpg","z","","","","","left","z","true"
"","null","html-keyboard-response","275","2.0.0","239532","pd5pthroaou","bigger","hedgehog","like the stroop experiment but for size","no","<p>Correct!</p>","null","","","","","","",""
"","null","html-keyboard-response","276","2.0.0","240546","pd5pthroaou","bigger","hedgehog","like the stroop experiment but for size","no","<div style=""font-size:60px;"">+</div>","null","","","","","","",""
"","452","image-keyboard-response","277","2.0.0","241000","pd5pthroaou","bigger","hedgehog","like the stroop experiment but for size","no","stimuli/22-Congruent.jpg","z","","","","","left","z","true"
"","null","html-keyboard-response","278","2.0.0","241917","pd5pthroaou","bigger","hedgehog","like the stroop experiment but for size","no","<p>Correct!</p>","null","","","","","","",""
"","null","html-keyboard-response","279","2.0.0","242919","pd5pthroaou","bigger","hedgehog","like the stroop experiment but for size","no","<div style=""font-size:60px;"">+</div>","null","","","","","","",""
"","443","image-keyboard-response","280","2.0.0","243364","pd5pthroaou","bigger","hedgehog","like the stroop experiment but for size","no","stimuli/8-Inongruent.jpg","m","","","","","right","m","true"
"","null","html-keyboard-response","281","2.0.0","244279","pd5pthroaou","bigger","hedgehog","like the stroop experiment but for size","no","<p>Correct!</p>","null","","","","","","",""
"","null","html-keyboard-response","282","2.0.0","245295","pd5pthroaou","bigger","hedgehog","like the stroop experiment but for size","no","<div style=""font-size:60px;"">+</div>","null","","","","","","",""
"","471","image-keyboard-response","283","2.0.0","245768","pd5pthroaou","bigger","hedgehog","like the stroop experiment but for size","no","stimuli/4-Congruent.jpg","z","","","","","left","z","true"
"","null","html-keyboard-response","284","2.0.0","246678","pd5pthroaou","bigger","hedgehog","like the stroop experiment but for size","no","<p>Correct!</p>","null","","","","","","",""
"","null","html-keyboard-response","285","2.0.0","247694","pd5pthroaou","bigger","hedgehog","like the stroop experiment but for size","no","<div style=""font-size:60px;"">+</div>","null","","","","","","",""
"","421","image-keyboard-response","286","2.0.0","248117","pd5pthroaou","bigger","hedgehog","like the stroop experiment but for size","no","stimuli/7-Inongruent.jpg","m","","","","","right","m","true"
"","null","html-keyboard-response","287","2.0.0","249023","pd5pthroaou","bigger","hedgehog","like the stroop experiment but for size","no","<p>Correct!</p>","null","","","","","","",""
"","null","html-keyboard-response","288","2.0.0","250037","pd5pthroaou","bigger","hedgehog","like the stroop experiment but for size","no","<div style=""font-size:60px;"">+</div>","null","","","","","","",""
"","584","image-keyboard-response","289","2.0.0","250622","pd5pthroaou","bigger","hedgehog","like the stroop experiment but for size","no","stimuli/16-Congruent.jpg","z","","","","","left","z","true"
"","null","html-keyboard-response","290","2.0.0","251526","pd5pthroaou","bigger","hedgehog","like the stroop experiment but for size","no","<p>Correct!</p>","null","","","","","","",""
"","null","html-keyboard-response","291","2.0.0","252540","pd5pthroaou","bigger","hedgehog","like the stroop experiment but for size","no","<div style=""font-size:60px;"">+</div>","null","","","","","","",""
"","453","image-keyboard-response","292","2.0.0","252995","pd5pthroaou","bigger","hedgehog","like the stroop experiment but for size","no","stimuli/23-Inongruent.jpg","m","","","","","right","m","true"
"","null","html-keyboard-response","293","2.0.0","253904","pd5pthroaou","bigger","hedgehog","like the stroop experiment but for size","no","<p>Correct!</p>","null","","","","","","",""
"","null","html-keyboard-response","294","2.0.0","254909","pd5pthroaou","bigger","hedgehog","like the stroop experiment but for size","no","<div style=""font-size:60px;"">+</div>","null","","","","","","",""
"","628","image-keyboard-response","295","2.0.0","255539","pd5pthroaou","bigger","hedgehog","like the stroop experiment but for size","no","stimuli/26-Congruent.jpg","z","","","","","left","z","true"
"","null","html-keyboard-response","296","2.0.0","256453","pd5pthroaou","bigger","hedgehog","like the stroop experiment but for size","no","<p>Correct!</p>","null","","","","","","",""
"","null","html-keyboard-response","297","2.0.0","257470","pd5pthroaou","bigger","hedgehog","like the stroop experiment but for size","no","<div style=""font-size:60px;"">+</div>","null","","","","","","",""
"","758","image-keyboard-response","298","2.0.0","258230","pd5pthroaou","bigger","hedgehog","like the stroop experiment but for size","no","stimuli/13-Inongruent.jpg","m","","","","","right","m","true"
"","null","html-keyboard-response","299","2.0.0","259136","pd5pthroaou","bigger","hedgehog","like the stroop experiment but for size","no","<p>Correct!</p>","null","","","","","","",""
"","null","html-keyboard-response","300","2.0.0","260139","pd5pthroaou","bigger","hedgehog","like the stroop experiment but for size","no","<div style=""font-size:60px;"">+</div>","null","","","","","","",""
"","507","image-keyboard-response","301","2.0.0","260648","pd5pthroaou","bigger","hedgehog","like the stroop experiment but for size","no","stimuli/21-Congruent.jpg","z","","","","","left","z","true"
"","null","html-keyboard-response","302","2.0.0","261563","pd5pthroaou","bigger","hedgehog","like the stroop experiment but for size","no","<p>Correct!</p>","null","","","","","","",""
"","null","html-keyboard-response","303","2.0.0","262578","pd5pthroaou","bigger","hedgehog","like the stroop experiment but for size","no","<div style=""font-size:60px;"">+</div>","null","","","","","","",""
"","453","image-keyboard-response","304","2.0.0","263033","pd5pthroaou","bigger","hedgehog","like the stroop experiment but for size","no","stimuli/29-Inongruent.jpg","m","","","","","right","m","true"
"","null","html-keyboard-response","305","2.0.0","263940","pd5pthroaou","bigger","hedgehog","like the stroop experiment but for size","no","<p>Correct!</p>","null","","","","","","",""
"","null","html-keyboard-response","306","2.0.0","264956","pd5pthroaou","bigger","hedgehog","like the stroop experiment but for size","no","<div style=""font-size:60px;"">+</div>","null","","","","","","",""
"","514","image-keyboard-response","307","2.0.0","265472","pd5pthroaou","bigger","hedgehog","like the stroop experiment but for size","no","stimuli/32-Congruent.jpg","z","","","","","left","z","true"
"","null","html-keyboard-response","308","2.0.0","266380","pd5pthroaou","bigger","hedgehog","like the stroop experiment but for size","no","<p>Correct!</p>","null","","","","","","",""
"","null","html-keyboard-response","309","2.0.0","267393","pd5pthroaou","bigger","hedgehog","like the stroop experiment but for size","no","<div style=""font-size:60px;"">+</div>","null","","","","","","",""
"","425","image-keyboard-response","310","2.0.0","267819","pd5pthroaou","bigger","hedgehog","like the stroop experiment but for size","no","stimuli/13-Inongruent.jpg","m","","","","","right","m","true"
"","null","html-keyboard-response","311","2.0.0","268721","pd5pthroaou","bigger","hedgehog","like the stroop experiment but for size","no","<p>Correct!</p>","null","","","","","","",""
"","null","html-keyboard-response","312","2.0.0","269735","pd5pthroaou","bigger","hedgehog","like the stroop experiment but for size","no","<div style=""font-size:60px;"">+</div>","null","","","","","","",""
"","533","image-keyboard-response","313","2.0.0","270269","pd5pthroaou","bigger","hedgehog","like the stroop experiment but for size","no","stimuli/29-Congruent.jpg","z","","","","","left","z","true"
"","null","html-keyboard-response","314","2.0.0","271178","pd5pthroaou","bigger","hedgehog","like the stroop experiment but for size","no","<p>Correct!</p>","null","","","","","","",""
"","null","html-keyboard-response","315","2.0.0","272181","pd5pthroaou","bigger","hedgehog","like the stroop experiment but for size","no","<div style=""font-size:60px;"">+</div>","null","","","","","","",""
"","455","image-keyboard-response","316","2.0.0","272638","pd5pthroaou","bigger","hedgehog","like the stroop experiment but for size","no","stimuli/17-Inongruent.jpg","m","","","","","right","m","true"
"","null","html-keyboard-response","317","2.0.0","273551","pd5pthroaou","bigger","hedgehog","like the stroop experiment but for size","no","<p>Correct!</p>","null","","","","","","",""
"","null","html-keyboard-response","318","2.0.0","274564","pd5pthroaou","bigger","hedgehog","like the stroop experiment but for size","no","<div style=""font-size:60px;"">+</div>","null","","","","","","",""
"","473","image-keyboard-response","319","2.0.0","275039","pd5pthroaou","bigger","hedgehog","like the stroop experiment but for size","no","stimuli/35-Congruent.jpg","z","","","","","left","z","true"
"","null","html-keyboard-response","320","2.0.0","275942","pd5pthroaou","bigger","hedgehog","like the stroop experiment but for size","no","<p>Correct!</p>","null","","","","","","",""
"","null","html-keyboard-response","321","2.0.0","276957","pd5pthroaou","bigger","hedgehog","like the stroop experiment but for size","no","<div style=""font-size:60px;"">+</div>","null","","","","","","",""
"","438","image-keyboard-response","322","2.0.0","277397","pd5pthroaou","bigger","hedgehog","like the stroop experiment but for size","no","stimuli/9-Inongruent.jpg","m","","","","","right","m","true"
"","null","html-keyboard-response","323","2.0.0","278300","pd5pthroaou","bigger","hedgehog","like the stroop experiment but for size","no","<p>Correct!</p>","null","","","","","","",""
"","null","html-keyboard-response","324","2.0.0","279314","pd5pthroaou","bigger","hedgehog","like the stroop experiment but for size","no","<div style=""font-size:60px;"">+</div>","null","","","","","","",""
"","410","image-keyboard-response","325","2.0.0","279726","pd5pthroaou","bigger","hedgehog","like the stroop experiment but for size","no","stimuli/6-Inongruent.jpg","m","","","","","right","m","true"
"","null","html-keyboard-response","326","2.0.0","280631","pd5pthroaou","bigger","hedgehog","like the stroop experiment but for size","no","<p>Correct!</p>","null","","","","","","",""
"","null","html-keyboard-response","327","2.0.0","281647","pd5pthroaou","bigger","hedgehog","like the stroop experiment but for size","no","<div style=""font-size:60px;"">+</div>","null","","","","","","",""
"","628","image-keyboard-response","328","2.0.0","282276","pd5pthroaou","bigger","hedgehog","like the stroop experiment but for size","no","stimuli/26-Inongruent.jpg","m","","","","","right","m","true"
"","null","html-keyboard-response","329","2.0.0","283178","pd5pthroaou","bigger","hedgehog","like the stroop experiment but for size","no","<p>Correct!</p>","null","","","","","","",""
"","null","html-keyboard-response","330","2.0.0","284184","pd5pthroaou","bigger","hedgehog","like the stroop experiment but for size","no","<div style=""font-size:60px;"">+</div>","null","","","","","","",""
"","736","image-keyboard-response","331","2.0.0","284922","pd5pthroaou","bigger","hedgehog","like the stroop experiment but for size","no","stimuli/34-Inongruent.jpg","m","","","","","right","m","true"
"","null","html-keyboard-response","332","2.0.0","285826","pd5pthroaou","bigger","hedgehog","like the stroop experiment but for size","no","<p>Correct!</p>","null","","","","","","",""
"","null","html-keyboard-response","333","2.0.0","286841","pd5pthroaou","bigger","hedgehog","like the stroop experiment but for size","no","<div style=""font-size:60px;"">+</div>","null","","","","","","",""
"","564","image-keyboard-response","334","2.0.0","287406","pd5pthroaou","bigger","hedgehog","like the stroop experiment but for size","no","stimuli/12-Congruent.jpg","z","","","","","left","z","true"
"","null","html-keyboard-response","335","2.0.0","288310","pd5pthroaou","bigger","hedgehog","like the stroop experiment but for size","no","<p>Correct!</p>","null","","","","","","",""
"","null","html-keyboard-response","336","2.0.0","289313","pd5pthroaou","bigger","hedgehog","like the stroop experiment but for size","no","<div style=""font-size:60px;"">+</div>","null","","","","","","",""
"","644","image-keyboard-response","337","2.0.0","289959","pd5pthroaou","bigger","hedgehog","like the stroop experiment but for size","no","stimuli/28-Inongruent.jpg","m","","","","","right","m","true"
"","null","html-keyboard-response","338","2.0.0","290875","pd5pthroaou","bigger","hedgehog","like the stroop experiment but for size","no","<p>Correct!</p>","null","","","","","","",""
"","null","html-keyboard-response","339","2.0.0","291890","pd5pthroaou","bigger","hedgehog","like the stroop experiment but for size","no","<div style=""font-size:60px;"">+</div>","null","","","","","","",""
"","501","image-keyboard-response","340","2.0.0","292393","pd5pthroaou","bigger","hedgehog","like the stroop experiment but for size","no","stimuli/11-Congruent.jpg","z","","","","","left","z","true"
"","null","html-keyboard-response","341","2.0.0","293297","pd5pthroaou","bigger","hedgehog","like the stroop experiment but for size","no","<p>Correct!</p>","null","","","","","","",""
"","null","html-keyboard-response","342","2.0.0","294312","pd5pthroaou","bigger","hedgehog","like the stroop experiment but for size","no","<div style=""font-size:60px;"">+</div>","null","","","","","","",""
"","624","image-keyboard-response","343","2.0.0","294938","pd5pthroaou","bigger","hedgehog","like the stroop experiment but for size","no","stimuli/8-Inongruent.jpg","m","","","","","right","m","true"
"","null","html-keyboard-response","344","2.0.0","295853","pd5pthroaou","bigger","hedgehog","like the stroop experiment but for size","no","<p>Correct!</p>","null","","","","","","",""
"","null","html-keyboard-response","345","2.0.0","296858","pd5pthroaou","bigger","hedgehog","like the stroop experiment but for size","no","<div style=""font-size:60px;"">+</div>","null","","","","","","",""
"","547","image-keyboard-response","346","2.0.0","297407","pd5pthroaou","bigger","hedgehog","like the stroop experiment but for size","no","stimuli/19-Inongruent.jpg","m","","","","","right","m","true"
"","null","html-keyboard-response","347","2.0.0","298308","pd5pthroaou","bigger","hedgehog","like the stroop experiment but for size","no","<p>Correct!</p>","null","","","","","","",""
"","null","html-keyboard-response","348","2.0.0","299310","pd5pthroaou","bigger","hedgehog","like the stroop experiment but for size","no","<div style=""font-size:60px;"">+</div>","null","","","","","","",""
"","435","image-keyboard-response","349","2.0.0","299747","pd5pthroaou","bigger","hedgehog","like the stroop experiment but for size","no","stimuli/35-Inongruent.jpg","m","","","","","right","m","true"
"","null","html-keyboard-response","350","2.0.0","300650","pd5pthroaou","bigger","hedgehog","like the stroop experiment but for size","no","<p>Correct!</p>","null","","","","","","",""
"","null","html-keyboard-response","351","2.0.0","301666","pd5pthroaou","bigger","hedgehog","like the stroop experiment but for size","no","<div style=""font-size:60px;"">+</div>","null","","","","","","",""
"","443","image-keyboard-response","352","2.0.0","302111","pd5pthroaou","bigger","hedgehog","like the stroop experiment but for size","no","stimuli/4-Inongruent.jpg","m","","","","","right","m","true"
"","null","html-keyboard-response","353","2.0.0","303016","pd5pthroaou","bigger","hedgehog","like the stroop experiment but for size","no","<p>Correct!</p>","null","","","","","","",""
"","null","html-keyboard-response","354","2.0.0","304029","pd5pthroaou","bigger","hedgehog","like the stroop experiment but for size","no","<div style=""font-size:60px;"">+</div>","null","","","","","","",""
"","440","image-keyboard-response","355","2.0.0","304470","pd5pthroaou","bigger","hedgehog","like the stroop experiment but for size","no","stimuli/35-Congruent.jpg","z","","","","","left","z","true"
"","null","html-keyboard-response","356","2.0.0","305374","pd5pthroaou","bigger","hedgehog","like the stroop experiment but for size","no","<p>Correct!</p>","null","","","","","","",""
"","null","html-keyboard-response","357","2.0.0","306378","pd5pthroaou","bigger","hedgehog","like the stroop experiment but for size","no","<div style=""font-size:60px;"">+</div>","null","","","","","","",""
"","397","image-keyboard-response","358","2.0.0","306777","pd5pthroaou","bigger","hedgehog","like the stroop experiment but for size","no","stimuli/7-Congruent.jpg","z","","","","","left","z","true"
"","null","html-keyboard-response","359","2.0.0","307688","pd5pthroaou","bigger","hedgehog","like the stroop experiment but for size","no","<p>Correct!</p>","null","","","","","","",""
"","null","html-keyboard-response","360","2.0.0","308691","pd5pthroaou","bigger","hedgehog","like the stroop experiment but for size","no","<div style=""font-size:60px;"">+</div>","null","","","","","","",""
"","378","image-keyboard-response","361","2.0.0","309071","pd5pthroaou","bigger","hedgehog","like the stroop experiment but for size","no","stimuli/22-Inongruent.jpg","m","","","","","right","m","true"
"","null","html-keyboard-response","362","2.0.0","309974","pd5pthroaou","bigger","hedgehog","like the stroop experiment but for size","no","<p>Correct!</p>","null","","","","","","",""
"","null","html-keyboard-response","363","2.0.0","310978","pd5pthroaou","bigger","hedgehog","like the stroop experiment but for size","no","<div style=""font-size:60px;"">+</div>","null","","","","","","",""
"","390","image-keyboard-response","364","2.0.0","311370","pd5pthroaou","bigger","hedgehog","like the stroop experiment but for size","no","stimuli/35-Inongruent.jpg","m","","","","","right","m","true"
"","null","html-keyboard-response","365","2.0.0","312275","pd5pthroaou","bigger","hedgehog","like the stroop experiment but for size","no","<p>Correct!</p>","null","","","","","","",""
"","null","html-keyboard-response","366","2.0.0","313290","pd5pthroaou","bigger","hedgehog","like the stroop experiment but for size","no","<div style=""font-size:60px;"">+</div>","null","","","","","","",""
"","469","image-keyboard-response","367","2.0.0","313761","pd5pthroaou","bigger","hedgehog","like the stroop experiment but for size","no","stimuli/20-Congruent.jpg","z","","","","","left","z","true"
"","null","html-keyboard-response","368","2.0.0","314665","pd5pthroaou","bigger","hedgehog","like the stroop experiment but for size","no","<p>Correct!</p>","null","","","","","","",""
"","null","html-keyboard-response","369","2.0.0","315673","pd5pthroaou","bigger","hedgehog","like the stroop experiment but for size","no","<div style=""font-size:60px;"">+</div>","null","","","","","","",""
"","363","image-keyboard-response","370","2.0.0","316038","pd5pthroaou","bigger","hedgehog","like the stroop experiment but for size","no","stimuli/18-Congruent.jpg","m","","","","","left","z","false"
"","889","html-keyboard-response","371","2.0.0","316929","pd5pthroaou","bigger","hedgehog","like the stroop experiment but for size","no","<p>Incorrect.</p><p>Remember to select the <b>bigger</b> image.</p><p>Continuing in 5 seconds...</p>","m","","","","","","",""
"","null","html-keyboard-response","372","2.0.0","317945","pd5pthroaou","bigger","hedgehog","like the stroop experiment but for size","no","<div style=""font-size:60px;"">+</div>","null","","","","","","",""
"","438","image-keyboard-response","373","2.0.0","318385","pd5pthroaou","bigger","hedgehog","like the stroop experiment but for size","no","stimuli/12-Inongruent.jpg","m","","","","","right","m","true"
"","null","html-keyboard-response","374","2.0.0","319300","pd5pthroaou","bigger","hedgehog","like the stroop experiment but for size","no","<p>Correct!</p>","null","","","","","","",""
"","null","html-keyboard-response","375","2.0.0","320302","pd5pthroaou","bigger","hedgehog","like the stroop experiment but for size","no","<div style=""font-size:60px;"">+</div>","null","","","","","","",""
"","425","image-keyboard-response","376","2.0.0","320730","pd5pthroaou","bigger","hedgehog","like the stroop experiment but for size","no","stimuli/33-Congruent.jpg","z","","","","","left","z","true"
"","null","html-keyboard-response","377","2.0.0","321636","pd5pthroaou","bigger","hedgehog","like the stroop experiment but for size","no","<p>Correct!</p>","null","","","","","","",""
"","null","html-keyboard-response","378","2.0.0","322640","pd5pthroaou","bigger","hedgehog","like the stroop experiment but for size","no","<div style=""font-size:60px;"">+</div>","null","","","","","","",""
"","560","image-keyboard-response","379","2.0.0","323202","pd5pthroaou","bigger","hedgehog","like the stroop experiment but for size","no","stimuli/8-Congruent.jpg","z","","","","","left","z","true"
"","null","html-keyboard-response","380","2.0.0","324110","pd5pthroaou","bigger","hedgehog","like the stroop experiment but for size","no","<p>Correct!</p>","null","","","","","","",""
"","null","html-keyboard-response","381","2.0.0","325112","pd5pthroaou","bigger","hedgehog","like the stroop experiment but for size","no","<div style=""font-size:60px;"">+</div>","null","","","","","","",""
"","915","image-keyboard-response","382","2.0.0","326028","pd5pthroaou","bigger","hedgehog","like the stroop experiment but for size","no","stimuli/33-Inongruent.jpg","m","","","","","right","m","true"
"","null","html-keyboard-response","383","2.0.0","326945","pd5pthroaou","bigger","hedgehog","like the stroop experiment but for size","no","<p>Correct!</p>","null","","","","","","",""
"","null","html-keyboard-response","384","2.0.0","327960","pd5pthroaou","bigger","hedgehog","like the stroop experiment but for size","no","<div style=""font-size:60px;"">+</div>","null","","","","","","",""
"","469","image-keyboard-response","385","2.0.0","328431","pd5pthroaou","bigger","hedgehog","like the stroop experiment but for size","no","stimuli/27-Inongruent.jpg","m","","","","","right","m","true"
"","null","html-keyboard-response","386","2.0.0","329347","pd5pthroaou","bigger","hedgehog","like the stroop experiment but for size","no","<p>Correct!</p>","null","","","","","","",""
"","null","html-keyboard-response","387","2.0.0","330361","pd5pthroaou","bigger","hedgehog","like the stroop experiment but for size","no","<div style=""font-size:60px;"">+</div>","null","","","","","","",""
"","515","image-keyboard-response","388","2.0.0","330878","pd5pthroaou","bigger","hedgehog","like the stroop experiment but for size","no","stimuli/7-Inongruent.jpg","m","","","","","right","m","true"
"","null","html-keyboard-response","389","2.0.0","331782","pd5pthroaou","bigger","hedgehog","like the stroop experiment but for size","no","<p>Correct!</p>","null","","","","","","",""
"","null","html-keyboard-response","390","2.0.0","332784","pd5pthroaou","bigger","hedgehog","like the stroop experiment but for size","no","<div style=""font-size:60px;"">+</div>","null","","","","","","",""
"","500","image-keyboard-response","391","2.0.0","333285","pd5pthroaou","bigger","hedgehog","like the stroop experiment but for size","no","stimuli/2-Inongruent.jpg","m","","","","","right","m","true"
"","null","html-keyboard-response","392","2.0.0","334189","pd5pthroaou","bigger","hedgehog","like the stroop experiment but for size","no","<p>Correct!</p>","null","","","","","","",""
"","null","html-keyboard-response","393","2.0.0","335205","pd5pthroaou","bigger","hedgehog","like the stroop experiment but for size","no","<div style=""font-size:60px;"">+</div>","null","","","","","","",""
"","553","image-keyboard-response","394","2.0.0","335759","pd5pthroaou","bigger","hedgehog","like the stroop experiment but for size","no","stimuli/19-Congruent.jpg","z","","","","","left","z","true"
"","null","html-keyboard-response","395","2.0.0","336673","pd5pthroaou","bigger","hedgehog","like the stroop experiment but for size","no","<p>Correct!</p>","null","","","","","","",""
"","null","html-keyboard-response","396","2.0.0","337687","pd5pthroaou","bigger","hedgehog","like the stroop experiment but for size","no","<div style=""font-size:60px;"">+</div>","null","","","","","","",""
"","914","image-keyboard-response","397","2.0.0","338602","pd5pthroaou","bigger","hedgehog","like the stroop experiment but for size","no","stimuli/23-Congruent.jpg","z","","","","","left","z","true"
"","null","html-keyboard-response","398","2.0.0","339509","pd5pthroaou","bigger","hedgehog","like the stroop experiment but for size","no","<p>Correct!</p>","null","","","","","","",""
"","null","html-keyboard-response","399","2.0.0","340513","pd5pthroaou","bigger","hedgehog","like the stroop experiment but for size","no","<div style=""font-size:60px;"">+</div>","null","","","","","","",""
"","377","image-keyboard-response","400","2.0.0","340892","pd5pthroaou","bigger","hedgehog","like the stroop experiment but for size","no","stimuli/14-Inongruent.jpg","m","","","","","right","m","true"
"","null","html-keyboard-response","401","2.0.0","341796","pd5pthroaou","bigger","hedgehog","like the stroop experiment but for size","no","<p>Correct!</p>","null","","","","","","",""
"","null","html-keyboard-response","402","2.0.0","342799","pd5pthroaou","bigger","hedgehog","like the stroop experiment but for size","no","<div style=""font-size:60px;"">+</div>","null","","","","","","",""
"","391","image-keyboard-response","403","2.0.0","343191","pd5pthroaou","bigger","hedgehog","like the stroop experiment but for size","no","stimuli/17-Inongruent.jpg","m","","","","","right","m","true"
"","null","html-keyboard-response","404","2.0.0","344106","pd5pthroaou","bigger","hedgehog","like the stroop experiment but for size","no","<p>Correct!</p>","null","","","","","","",""
"","null","html-keyboard-response","405","2.0.0","345108","pd5pthroaou","bigger","hedgehog","like the stroop experiment but for size","no","<div style=""font-size:60px;"">+</div>","null","","","","","","",""
"","377","image-keyboard-response","406","2.0.0","345487","pd5pthroaou","bigger","hedgehog","like the stroop experiment but for size","no","stimuli/11-Inongruent.jpg","m","","","","","right","m","true"
"","null","html-keyboard-response","407","2.0.0","346392","pd5pthroaou","bigger","hedgehog","like the stroop experiment but for size","no","<p>Correct!</p>","null","","","","","","",""
"","null","html-keyboard-response","408","2.0.0","347398","pd5pthroaou","bigger","hedgehog","like the stroop experiment but for size","no","<div style=""font-size:60px;"">+</div>","null","","","","","","",""
"","457","image-keyboard-response","409","2.0.0","347857","pd5pthroaou","bigger","hedgehog","like the stroop experiment but for size","no","stimuli/30-Inongruent.jpg","m","","","","","right","m","true"
"","null","html-keyboard-response","410","2.0.0","348780","pd5pthroaou","bigger","hedgehog","like the stroop experiment but for size","no","<p>Correct!</p>","null","","","","","","",""
"","null","html-keyboard-response","411","2.0.0","349783","pd5pthroaou","bigger","hedgehog","like the stroop experiment but for size","no","<div style=""font-size:60px;"">+</div>","null","","","","","","",""
"","441","image-keyboard-response","412","2.0.0","350225","pd5pthroaou","bigger","hedgehog","like the stroop experiment but for size","no","stimuli/31-Congruent.jpg","z","","","","","left","z","true"
"","null","html-keyboard-response","413","2.0.0","351137","pd5pthroaou","bigger","hedgehog","like the stroop experiment but for size","no","<p>Correct!</p>","null","","","","","","",""
"","null","html-keyboard-response","414","2.0.0","352147","pd5pthroaou","bigger","hedgehog","like the stroop experiment but for size","no","<div style=""font-size:60px;"">+</div>","null","","","","","","",""
"","412","image-keyboard-response","415","2.0.0","352561","pd5pthroaou","bigger","hedgehog","like the stroop experiment but for size","no","stimuli/19-Inongruent.jpg","m","","","","","right","m","true"
"","null","html-keyboard-response","416","2.0.0","353463","pd5pthroaou","bigger","hedgehog","like the stroop experiment but for size","no","<p>Correct!</p>","null","","","","","","",""
"","null","html-keyboard-response","417","2.0.0","354478","pd5pthroaou","bigger","hedgehog","like the stroop experiment but for size","no","<div style=""font-size:60px;"">+</div>","null","","","","","","",""
"","582","image-keyboard-response","418","2.0.0","355062","pd5pthroaou","bigger","hedgehog","like the stroop experiment but for size","no","stimuli/21-Inongruent.jpg","z","","","","","right","m","false"
"","684","html-keyboard-response","419","2.0.0","355747","pd5pthroaou","bigger","hedgehog","like the stroop experiment but for size","no","<p>Incorrect.</p><p>Remember to select the <b>bigger</b> image.</p><p>Continuing in 5 seconds...</p>","z","","","","","","",""
"","null","html-keyboard-response","420","2.0.0","356759","pd5pthroaou","bigger","hedgehog","like the stroop experiment but for size","no","<div style=""font-size:60px;"">+</div>","null","","","","","","",""
"","547","image-keyboard-response","421","2.0.0","357307","pd5pthroaou","bigger","hedgehog","like the stroop experiment but for size","no","stimuli/28-Congruent.jpg","z","","","","","left","z","true"
"","null","html-keyboard-response","422","2.0.0","358219","pd5pthroaou","bigger","hedgehog","like the stroop experiment but for size","no","<p>Correct!</p>","null","","","","","","",""
"","null","html-keyboard-response","423","2.0.0","359236","pd5pthroaou","bigger","hedgehog","like the stroop experiment but for size","no","<div style=""font-size:60px;"">+</div>","null","","","","","","",""
"","393","image-keyboard-response","424","2.0.0","359630","pd5pthroaou","bigger","hedgehog","like the stroop experiment but for size","no","stimuli/4-Inongruent.jpg","m","","","","","right","m","true"
"","null","html-keyboard-response","425","2.0.0","360534","pd5pthroaou","bigger","hedgehog","like the stroop experiment but for size","no","<p>Correct!</p>","null","","","","","","",""
"","null","html-keyboard-response","426","2.0.0","361538","pd5pthroaou","bigger","hedgehog","like the stroop experiment but for size","no","<div style=""font-size:60px;"">+</div>","null","","","","","","",""
"","646","image-keyboard-response","427","2.0.0","362186","pd5pthroaou","bigger","hedgehog","like the stroop experiment but for size","no","stimuli/15-Inongruent.jpg","m","","","","","right","m","true"
"","null","html-keyboard-response","428","2.0.0","363092","pd5pthroaou","bigger","hedgehog","like the stroop experiment but for size","no","<p>Correct!</p>","null","","","","","","",""
"","null","html-keyboard-response","429","2.0.0","364109","pd5pthroaou","bigger","hedgehog","like the stroop experiment but for size","no","<div style=""font-size:60px;"">+</div>","null","","","","","","",""
"","423","image-keyboard-response","430","2.0.0","364533","pd5pthroaou","bigger","hedgehog","like the stroop experiment but for size","no","stimuli/5-Inongruent.jpg","m","","","","","right","m","true"
"","null","html-keyboard-response","431","2.0.0","365445","pd5pthroaou","bigger","hedgehog","like the stroop experiment but for size","no","<p>Correct!</p>","null","","","","","","",""
"","null","html-keyboard-response","432","2.0.0","366457","pd5pthroaou","bigger","hedgehog","like the stroop experiment but for size","no","<div style=""font-size:60px;"">+</div>","null","","","","","","",""
"","797","image-keyboard-response","433","2.0.0","367256","pd5pthroaou","bigger","hedgehog","like the stroop experiment but for size","no","stimuli/3-Congruent.jpg","z","","","","","left","z","true"
"","null","html-keyboard-response","434","2.0.0","368161","pd5pthroaou","bigger","hedgehog","like the stroop experiment but for size","no","<p>Correct!</p>","null","","","","","","",""
"","null","html-keyboard-response","435","2.0.0","369176","pd5pthroaou","bigger","hedgehog","like the stroop experiment but for size","no","<div style=""font-size:60px;"">+</div>","null","","","","","","",""
"","691","image-keyboard-response","436","2.0.0","369869","pd5pthroaou","bigger","hedgehog","like the stroop experiment but for size","no","stimuli/30-Congruent.jpg","z","","","","","left","z","true"
"","null","html-keyboard-response","437","2.0.0","370776","pd5pthroaou","bigger","hedgehog","like the stroop experiment but for size","no","<p>Correct!</p>","null","","","","","","",""
"","1911","html-keyboard-response","438","2.0.0","372689","pd5pthroaou","bigger","hedgehog","like the stroop experiment but for size","no","<p>You have completed the experiment!</p>
              <p>Your accuracy was: 97.22222222222221%.</p>
              <p>Thank you for participating.</p>
              <p>Press any key to continue.</p>"," ","","","","","","",""
"","12282","survey-text","439","2.0.0","384975","pd5pthroaou","bigger","hedgehog","like the stroop experiment but for size","no","","{""participant_thoughts"":""like the stroop experiment but for size""}","","","","","","",""
"","2822","survey-text","440","2.0.0","387802","pd5pthroaou","bigger","hedgehog","like the stroop experiment but for size","no","","{""participant_difficulties"":""no""}","","","","","","",""
"","2691","html-keyboard-response","441","2.0.0","390495","pd5pthroaou","bigger","hedgehog","like the stroop experiment but for size","no","<p>The purpose of this experiment is to determine if the real world size of a familiar object is automatically processed when viewed.</p><p>Thank you for participating!</p>"," ","","","","","","",""
