"success","rt","trial_type","trial_index","plugin_version","time_elapsed","random_id","condition","participant","participant_thoughts","participant_difficulties","stimulus","response","timeout","failed_images","failed_audio","failed_video","correct_response","correct_response_key","correct"
"true","1762","fullscreen","0","null","2770","pd7te4rv8m5","smaller"," turtle","to see if we automatically process item size","no","","","","","","","","",""
"","1373","html-keyboard-response","1","2.0.0","4145","pd7te4rv8m5","smaller"," turtle","to see if we automatically process item size","no","Welcome to the Size Stroop experiment. Press any key to begin."," ","","","","","","",""
"","null","html-keyboard-response","2","2.0.0","5149","pd7te4rv8m5","smaller"," turtle","to see if we automatically process item size","no","This trial will be in fullscreen mode.","null","","","","","","",""
"","3706","survey-text","3","2.0.0","8861","pd7te4rv8m5","smaller"," turtle","to see if we automatically process item size","no","","{""participant_id"":"" turtle""}","","","","","","",""
"","3977","html-keyboard-response","4","2.0.0","12839","pd7te4rv8m5","smaller"," turtle","to see if we automatically process item size","no","<p>In this experiment, two images will appear on the screen. Identify the <strong>smaller</strong> image.</p>
              <p>If the image on the left is smaller, press ""z"". If the image on the right is smaller, press ""m"".</p>
              <p>Press any key to begin.</p>"," ","","","","","","",""
"true","","preload","5","2.0.0","13176","pd7te4rv8m5","smaller"," turtle","to see if we automatically process item size","no","","","false","[]","[]","[]","","",""
"","null","html-keyboard-response","6","2.0.0","14187","pd7te4rv8m5","smaller"," turtle","to see if we automatically process item size","no","<div style=""font-size:60px;"">+</div>","null","","","","","","",""
"","431","image-keyboard-response","7","2.0.0","14623","pd7te4rv8m5","smaller"," turtle","to see if we automatically process item size","no","stimuli/3-Inongruent.jpg","z","","","","","left","z","true"
"","null","html-keyboard-response","8","2.0.0","15531","pd7te4rv8m5","smaller"," turtle","to see if we automatically process item size","no","<p>Correct!</p>","null","","","","","","",""
"","null","html-keyboard-response","9","2.0.0","16537","pd7te4rv8m5","smaller"," turtle","to see if we automatically process item size","no","<div style=""font-size:60px;"">+</div>","null","","","","","","",""
"","416","image-keyboard-response","10","2.0.0","16955","pd7te4rv8m5","smaller"," turtle","to see if we automatically process item size","no","stimuli/23-Inongruent.jpg","z","","","","","left","z","true"
"","null","html-keyboard-response","11","2.0.0","17861","pd7te4rv8m5","smaller"," turtle","to see if we automatically process item size","no","<p>Correct!</p>","null","","","","","","",""
"","null","html-keyboard-response","12","2.0.0","18866","pd7te4rv8m5","smaller"," turtle","to see if we automatically process item size","no","<div style=""font-size:60px;"">+</div>","null","","","","","","",""
"","412","image-keyboard-response","13","2.0.0","19280","pd7te4rv8m5","smaller"," turtle","to see if we automatically process item size","no","stimuli/6-Inongruent.jpg","z","","","","","left","z","true"
"","null","html-keyboard-response","14","2.0.0","20186","pd7te4rv8m5","smaller"," turtle","to see if we automatically process item size","no","<p>Correct!</p>","null","","","","","","",""
"","null","html-keyboard-response","15","2.0.0","21192","pd7te4rv8m5","smaller"," turtle","to see if we automatically process item size","no","<div style=""font-size:60px;"">+</div>","null","","","","","","",""
"","383","image-keyboard-response","16","2.0.0","21577","pd7te4rv8m5","smaller"," turtle","to see if we automatically process item size","no","stimuli/16-Congruent.jpg","m","","","","","right","m","true"
"","null","html-keyboard-response","17","2.0.0","22484","pd7te4rv8m5","smaller"," turtle","to see if we automatically process item size","no","<p>Correct!</p>","null","","","","","","",""
"","null","html-keyboard-response","18","2.0.0","23490","pd7te4rv8m5","smaller"," turtle","to see if we automatically process item size","no","<div style=""font-size:60px;"">+</div>","null","","","","","","",""
"","568","image-keyboard-response","19","2.0.0","24061","pd7te4rv8m5","smaller"," turtle","to see if we automatically process item size","no","stimuli/36-Inongruent.jpg","z","","","","","left","z","true"
"","null","html-keyboard-response","20","2.0.0","24968","pd7te4rv8m5","smaller"," turtle","to see if we automatically process item size","no","<p>Correct!</p>","null","","","","","","",""
"","null","html-keyboard-response","21","2.0.0","25974","pd7te4rv8m5","smaller"," turtle","to see if we automatically process item size","no","<div style=""font-size:60px;"">+</div>","null","","","","","","",""
"","462","image-keyboard-response","22","2.0.0","26439","pd7te4rv8m5","smaller"," turtle","to see if we automatically process item size","no","stimuli/1-Congruent.jpg","m","","","","","right","m","true"
"","null","html-keyboard-response","23","2.0.0","27342","pd7te4rv8m5","smaller"," turtle","to see if we automatically process item size","no","<p>Correct!</p>","null","","","","","","",""
"","null","html-keyboard-response","24","2.0.0","28344","pd7te4rv8m5","smaller"," turtle","to see if we automatically process item size","no","<div style=""font-size:60px;"">+</div>","null","","","","","","",""
"","619","image-keyboard-response","25","2.0.0","28964","pd7te4rv8m5","smaller"," turtle","to see if we automatically process item size","no","stimuli/2-Inongruent.jpg","z","","","","","left","z","true"
"","null","html-keyboard-response","26","2.0.0","29871","pd7te4rv8m5","smaller"," turtle","to see if we automatically process item size","no","<p>Correct!</p>","null","","","","","","",""
"","null","html-keyboard-response","27","2.0.0","30877","pd7te4rv8m5","smaller"," turtle","to see if we automatically process item size","no","<div style=""font-size:60px;"">+</div>","null","","","","","","",""
"","657","image-keyboard-response","28","2.0.0","31535","pd7te4rv8m5","smaller"," turtle","to see if we automatically process item size","no","stimuli/34-Inongruent.jpg","z","","","","","left","z","true"
"","null","html-keyboard-response","29","2.0.0","32438","pd7te4rv8m5","smaller"," turtle","to see if we automatically process item size","no","<p>Correct!</p>","null","","","","","","",""
"","null","html-keyboard-response","30","2.0.0","33443","pd7te4rv8m5","smaller"," turtle","to see if we automatically process item size","no","<div style=""font-size:60px;"">+</div>","null","","","","","","",""
"","451","image-keyboard-response","31","2.0.0","33895","pd7te4rv8m5","smaller"," turtle","to see if we automatically process item size","no","stimuli/1-Inongruent.jpg","z","","","","","left","z","true"
"","null","html-keyboard-response","32","2.0.0","34796","pd7te4rv8m5","smaller"," turtle","to see if we automatically process item size","no","<p>Correct!</p>","null","","","","","","",""
"","null","html-keyboard-response","33","2.0.0","35802","pd7te4rv8m5","smaller"," turtle","to see if we automatically process item size","no","<div style=""font-size:60px;"">+</div>","null","","","","","","",""
"","614","image-keyboard-response","34","2.0.0","36418","pd7te4rv8m5","smaller"," turtle","to see if we automatically process item size","no","stimuli/16-Congruent.jpg","m","","","","","right","m","true"
"","null","html-keyboard-response","35","2.0.0","37322","pd7te4rv8m5","smaller"," turtle","to see if we automatically process item size","no","<p>Correct!</p>","null","","","","","","",""
"","null","html-keyboard-response","36","2.0.0","38327","pd7te4rv8m5","smaller"," turtle","to see if we automatically process item size","no","<div style=""font-size:60px;"">+</div>","null","","","","","","",""
"","368","image-keyboard-response","37","2.0.0","38696","pd7te4rv8m5","smaller"," turtle","to see if we automatically process item size","no","stimuli/30-Inongruent.jpg","z","","","","","left","z","true"
"","null","html-keyboard-response","38","2.0.0","39602","pd7te4rv8m5","smaller"," turtle","to see if we automatically process item size","no","<p>Correct!</p>","null","","","","","","",""
"","null","html-keyboard-response","39","2.0.0","40605","pd7te4rv8m5","smaller"," turtle","to see if we automatically process item size","no","<div style=""font-size:60px;"">+</div>","null","","","","","","",""
"","406","image-keyboard-response","40","2.0.0","41011","pd7te4rv8m5","smaller"," turtle","to see if we automatically process item size","no","stimuli/28-Inongruent.jpg","z","","","","","left","z","true"
"","null","html-keyboard-response","41","2.0.0","41918","pd7te4rv8m5","smaller"," turtle","to see if we automatically process item size","no","<p>Correct!</p>","null","","","","","","",""
"","null","html-keyboard-response","42","2.0.0","42924","pd7te4rv8m5","smaller"," turtle","to see if we automatically process item size","no","<div style=""font-size:60px;"">+</div>","null","","","","","","",""
"","449","image-keyboard-response","43","2.0.0","43374","pd7te4rv8m5","smaller"," turtle","to see if we automatically process item size","no","stimuli/11-Congruent.jpg","m","","","","","right","m","true"
"","null","html-keyboard-response","44","2.0.0","44280","pd7te4rv8m5","smaller"," turtle","to see if we automatically process item size","no","<p>Correct!</p>","null","","","","","","",""
"","null","html-keyboard-response","45","2.0.0","45285","pd7te4rv8m5","smaller"," turtle","to see if we automatically process item size","no","<div style=""font-size:60px;"">+</div>","null","","","","","","",""
"","404","image-keyboard-response","46","2.0.0","45691","pd7te4rv8m5","smaller"," turtle","to see if we automatically process item size","no","stimuli/18-Inongruent.jpg","z","","","","","left","z","true"
"","null","html-keyboard-response","47","2.0.0","46597","pd7te4rv8m5","smaller"," turtle","to see if we automatically process item size","no","<p>Correct!</p>","null","","","","","","",""
"","null","html-keyboard-response","48","2.0.0","47604","pd7te4rv8m5","smaller"," turtle","to see if we automatically process item size","no","<div style=""font-size:60px;"">+</div>","null","","","","","","",""
"","410","image-keyboard-response","49","2.0.0","48016","pd7te4rv8m5","smaller"," turtle","to see if we automatically process item size","no","stimuli/9-Congruent.jpg","m","","","","","right","m","true"
"","null","html-keyboard-response","50","2.0.0","48920","pd7te4rv8m5","smaller"," turtle","to see if we automatically process item size","no","<p>Correct!</p>","null","","","","","","",""
"","null","html-keyboard-response","51","2.0.0","49927","pd7te4rv8m5","smaller"," turtle","to see if we automatically process item size","no","<div style=""font-size:60px;"">+</div>","null","","","","","","",""
"","411","image-keyboard-response","52","2.0.0","50340","pd7te4rv8m5","smaller"," turtle","to see if we automatically process item size","no","stimuli/1-Congruent.jpg","m","","","","","right","m","true"
"","null","html-keyboard-response","53","2.0.0","51246","pd7te4rv8m5","smaller"," turtle","to see if we automatically process item size","no","<p>Correct!</p>","null","","","","","","",""
"","null","html-keyboard-response","54","2.0.0","52251","pd7te4rv8m5","smaller"," turtle","to see if we automatically process item size","no","<div style=""font-size:60px;"">+</div>","null","","","","","","",""
"","392","image-keyboard-response","55","2.0.0","52645","pd7te4rv8m5","smaller"," turtle","to see if we automatically process item size","no","stimuli/11-Congruent.jpg","m","","","","","right","m","true"
"","null","html-keyboard-response","56","2.0.0","53552","pd7te4rv8m5","smaller"," turtle","to see if we automatically process item size","no","<p>Correct!</p>","null","","","","","","",""
"","null","html-keyboard-response","57","2.0.0","54556","pd7te4rv8m5","smaller"," turtle","to see if we automatically process item size","no","<div style=""font-size:60px;"">+</div>","null","","","","","","",""
"","398","image-keyboard-response","58","2.0.0","54956","pd7te4rv8m5","smaller"," turtle","to see if we automatically process item size","no","stimuli/18-Congruent.jpg","m","","","","","right","m","true"
"","null","html-keyboard-response","59","2.0.0","55859","pd7te4rv8m5","smaller"," turtle","to see if we automatically process item size","no","<p>Correct!</p>","null","","","","","","",""
"","null","html-keyboard-response","60","2.0.0","56865","pd7te4rv8m5","smaller"," turtle","to see if we automatically process item size","no","<div style=""font-size:60px;"">+</div>","null","","","","","","",""
"","569","image-keyboard-response","61","2.0.0","57436","pd7te4rv8m5","smaller"," turtle","to see if we automatically process item size","no","stimuli/14-Congruent.jpg","m","","","","","right","m","true"
"","null","html-keyboard-response","62","2.0.0","58339","pd7te4rv8m5","smaller"," turtle","to see if we automatically process item size","no","<p>Correct!</p>","null","","","","","","",""
"","null","html-keyboard-response","63","2.0.0","59344","pd7te4rv8m5","smaller"," turtle","to see if we automatically process item size","no","<div style=""font-size:60px;"">+</div>","null","","","","","","",""
"","369","image-keyboard-response","64","2.0.0","59714","pd7te4rv8m5","smaller"," turtle","to see if we automatically process item size","no","stimuli/22-Inongruent.jpg","z","","","","","left","z","true"
"","null","html-keyboard-response","65","2.0.0","60619","pd7te4rv8m5","smaller"," turtle","to see if we automatically process item size","no","<p>Correct!</p>","null","","","","","","",""
"","null","html-keyboard-response","66","2.0.0","61625","pd7te4rv8m5","smaller"," turtle","to see if we automatically process item size","no","<div style=""font-size:60px;"">+</div>","null","","","","","","",""
"","347","image-keyboard-response","67","2.0.0","61974","pd7te4rv8m5","smaller"," turtle","to see if we automatically process item size","no","stimuli/10-Congruent.jpg","m","","","","","right","m","true"
"","null","html-keyboard-response","68","2.0.0","62881","pd7te4rv8m5","smaller"," turtle","to see if we automatically process item size","no","<p>Correct!</p>","null","","","","","","",""
"","null","html-keyboard-response","69","2.0.0","63887","pd7te4rv8m5","smaller"," turtle","to see if we automatically process item size","no","<div style=""font-size:60px;"">+</div>","null","","","","","","",""
"","372","image-keyboard-response","70","2.0.0","64261","pd7te4rv8m5","smaller"," turtle","to see if we automatically process item size","no","stimuli/15-Inongruent.jpg","z","","","","","left","z","true"
"","null","html-keyboard-response","71","2.0.0","65168","pd7te4rv8m5","smaller"," turtle","to see if we automatically process item size","no","<p>Correct!</p>","null","","","","","","",""
"","null","html-keyboard-response","72","2.0.0","66172","pd7te4rv8m5","smaller"," turtle","to see if we automatically process item size","no","<div style=""font-size:60px;"">+</div>","null","","","","","","",""
"","366","image-keyboard-response","73","2.0.0","66540","pd7te4rv8m5","smaller"," turtle","to see if we automatically process item size","no","stimuli/31-Congruent.jpg","m","","","","","right","m","true"
"","null","html-keyboard-response","74","2.0.0","67442","pd7te4rv8m5","smaller"," turtle","to see if we automatically process item size","no","<p>Correct!</p>","null","","","","","","",""
"","null","html-keyboard-response","75","2.0.0","68444","pd7te4rv8m5","smaller"," turtle","to see if we automatically process item size","no","<div style=""font-size:60px;"">+</div>","null","","","","","","",""
"","441","image-keyboard-response","76","2.0.0","68887","pd7te4rv8m5","smaller"," turtle","to see if we automatically process item size","no","stimuli/2-Congruent.jpg","m","","","","","right","m","true"
"","null","html-keyboard-response","77","2.0.0","69793","pd7te4rv8m5","smaller"," turtle","to see if we automatically process item size","no","<p>Correct!</p>","null","","","","","","",""
"","null","html-keyboard-response","78","2.0.0","70799","pd7te4rv8m5","smaller"," turtle","to see if we automatically process item size","no","<div style=""font-size:60px;"">+</div>","null","","","","","","",""
"","386","image-keyboard-response","79","2.0.0","71187","pd7te4rv8m5","smaller"," turtle","to see if we automatically process item size","no","stimuli/27-Inongruent.jpg","z","","","","","left","z","true"
"","null","html-keyboard-response","80","2.0.0","72094","pd7te4rv8m5","smaller"," turtle","to see if we automatically process item size","no","<p>Correct!</p>","null","","","","","","",""
"","null","html-keyboard-response","81","2.0.0","73100","pd7te4rv8m5","smaller"," turtle","to see if we automatically process item size","no","<div style=""font-size:60px;"">+</div>","null","","","","","","",""
"","433","image-keyboard-response","82","2.0.0","73536","pd7te4rv8m5","smaller"," turtle","to see if we automatically process item size","no","stimuli/10-Inongruent.jpg","z","","","","","left","z","true"
"","null","html-keyboard-response","83","2.0.0","74440","pd7te4rv8m5","smaller"," turtle","to see if we automatically process item size","no","<p>Correct!</p>","null","","","","","","",""
"","null","html-keyboard-response","84","2.0.0","75448","pd7te4rv8m5","smaller"," turtle","to see if we automatically process item size","no","<div style=""font-size:60px;"">+</div>","null","","","","","","",""
"","363","image-keyboard-response","85","2.0.0","75813","pd7te4rv8m5","smaller"," turtle","to see if we automatically process item size","no","stimuli/25-Congruent.jpg","m","","","","","right","m","true"
"","null","html-keyboard-response","86","2.0.0","76717","pd7te4rv8m5","smaller"," turtle","to see if we automatically process item size","no","<p>Correct!</p>","null","","","","","","",""
"","null","html-keyboard-response","87","2.0.0","77721","pd7te4rv8m5","smaller"," turtle","to see if we automatically process item size","no","<div style=""font-size:60px;"">+</div>","null","","","","","","",""
"","334","image-keyboard-response","88","2.0.0","78058","pd7te4rv8m5","smaller"," turtle","to see if we automatically process item size","no","stimuli/28-Inongruent.jpg","z","","","","","left","z","true"
"","null","html-keyboard-response","89","2.0.0","78965","pd7te4rv8m5","smaller"," turtle","to see if we automatically process item size","no","<p>Correct!</p>","null","","","","","","",""
"","null","html-keyboard-response","90","2.0.0","79972","pd7te4rv8m5","smaller"," turtle","to see if we automatically process item size","no","<div style=""font-size:60px;"">+</div>","null","","","","","","",""
"","364","image-keyboard-response","91","2.0.0","80338","pd7te4rv8m5","smaller"," turtle","to see if we automatically process item size","no","stimuli/31-Congruent.jpg","m","","","","","right","m","true"
"","null","html-keyboard-response","92","2.0.0","81241","pd7te4rv8m5","smaller"," turtle","to see if we automatically process item size","no","<p>Correct!</p>","null","","","","","","",""
"","null","html-keyboard-response","93","2.0.0","82248","pd7te4rv8m5","smaller"," turtle","to see if we automatically process item size","no","<div style=""font-size:60px;"">+</div>","null","","","","","","",""
"","329","image-keyboard-response","94","2.0.0","82579","pd7te4rv8m5","smaller"," turtle","to see if we automatically process item size","no","stimuli/26-Inongruent.jpg","z","","","","","left","z","true"
"","null","html-keyboard-response","95","2.0.0","83484","pd7te4rv8m5","smaller"," turtle","to see if we automatically process item size","no","<p>Correct!</p>","null","","","","","","",""
"","null","html-keyboard-response","96","2.0.0","84491","pd7te4rv8m5","smaller"," turtle","to see if we automatically process item size","no","<div style=""font-size:60px;"">+</div>","null","","","","","","",""
"","405","image-keyboard-response","97","2.0.0","84898","pd7te4rv8m5","smaller"," turtle","to see if we automatically process item size","no","stimuli/8-Inongruent.jpg","z","","","","","left","z","true"
"","null","html-keyboard-response","98","2.0.0","85805","pd7te4rv8m5","smaller"," turtle","to see if we automatically process item size","no","<p>Correct!</p>","null","","","","","","",""
"","null","html-keyboard-response","99","2.0.0","86812","pd7te4rv8m5","smaller"," turtle","to see if we automatically process item size","no","<div style=""font-size:60px;"">+</div>","null","","","","","","",""
"","341","image-keyboard-response","100","2.0.0","87155","pd7te4rv8m5","smaller"," turtle","to see if we automatically process item size","no","stimuli/14-Congruent.jpg","m","","","","","right","m","true"
"","null","html-keyboard-response","101","2.0.0","88061","pd7te4rv8m5","smaller"," turtle","to see if we automatically process item size","no","<p>Correct!</p>","null","","","","","","",""
"","null","html-keyboard-response","102","2.0.0","89067","pd7te4rv8m5","smaller"," turtle","to see if we automatically process item size","no","<div style=""font-size:60px;"">+</div>","null","","","","","","",""
"","361","image-keyboard-response","103","2.0.0","89430","pd7te4rv8m5","smaller"," turtle","to see if we automatically process item size","no","stimuli/24-Inongruent.jpg","z","","","","","left","z","true"
"","null","html-keyboard-response","104","2.0.0","90337","pd7te4rv8m5","smaller"," turtle","to see if we automatically process item size","no","<p>Correct!</p>","null","","","","","","",""
"","null","html-keyboard-response","105","2.0.0","91343","pd7te4rv8m5","smaller"," turtle","to see if we automatically process item size","no","<div style=""font-size:60px;"">+</div>","null","","","","","","",""
"","368","image-keyboard-response","106","2.0.0","91713","pd7te4rv8m5","smaller"," turtle","to see if we automatically process item size","no","stimuli/34-Congruent.jpg","m","","","","","right","m","true"
"","null","html-keyboard-response","107","2.0.0","92618","pd7te4rv8m5","smaller"," turtle","to see if we automatically process item size","no","<p>Correct!</p>","null","","","","","","",""
"","null","html-keyboard-response","108","2.0.0","93624","pd7te4rv8m5","smaller"," turtle","to see if we automatically process item size","no","<div style=""font-size:60px;"">+</div>","null","","","","","","",""
"","434","image-keyboard-response","109","2.0.0","94060","pd7te4rv8m5","smaller"," turtle","to see if we automatically process item size","no","stimuli/5-Inongruent.jpg","z","","","","","left","z","true"
"","null","html-keyboard-response","110","2.0.0","94967","pd7te4rv8m5","smaller"," turtle","to see if we automatically process item size","no","<p>Correct!</p>","null","","","","","","",""
"","null","html-keyboard-response","111","2.0.0","95971","pd7te4rv8m5","smaller"," turtle","to see if we automatically process item size","no","<div style=""font-size:60px;"">+</div>","null","","","","","","",""
"","848","image-keyboard-response","112","2.0.0","96820","pd7te4rv8m5","smaller"," turtle","to see if we automatically process item size","no","stimuli/9-Inongruent.jpg","z","","","","","left","z","true"
"","null","html-keyboard-response","113","2.0.0","97727","pd7te4rv8m5","smaller"," turtle","to see if we automatically process item size","no","<p>Correct!</p>","null","","","","","","",""
"","null","html-keyboard-response","114","2.0.0","98730","pd7te4rv8m5","smaller"," turtle","to see if we automatically process item size","no","<div style=""font-size:60px;"">+</div>","null","","","","","","",""
"","440","image-keyboard-response","115","2.0.0","99173","pd7te4rv8m5","smaller"," turtle","to see if we automatically process item size","no","stimuli/35-Congruent.jpg","m","","","","","right","m","true"
"","null","html-keyboard-response","116","2.0.0","100077","pd7te4rv8m5","smaller"," turtle","to see if we automatically process item size","no","<p>Correct!</p>","null","","","","","","",""
"","null","html-keyboard-response","117","2.0.0","101084","pd7te4rv8m5","smaller"," turtle","to see if we automatically process item size","no","<div style=""font-size:60px;"">+</div>","null","","","","","","",""
"","433","image-keyboard-response","118","2.0.0","101519","pd7te4rv8m5","smaller"," turtle","to see if we automatically process item size","no","stimuli/1-Inongruent.jpg","z","","","","","left","z","true"
"","null","html-keyboard-response","119","2.0.0","102426","pd7te4rv8m5","smaller"," turtle","to see if we automatically process item size","no","<p>Correct!</p>","null","","","","","","",""
"","null","html-keyboard-response","120","2.0.0","103432","pd7te4rv8m5","smaller"," turtle","to see if we automatically process item size","no","<div style=""font-size:60px;"">+</div>","null","","","","","","",""
"","424","image-keyboard-response","121","2.0.0","103858","pd7te4rv8m5","smaller"," turtle","to see if we automatically process item size","no","stimuli/8-Congruent.jpg","m","","","","","right","m","true"
"","null","html-keyboard-response","122","2.0.0","104765","pd7te4rv8m5","smaller"," turtle","to see if we automatically process item size","no","<p>Correct!</p>","null","","","","","","",""
"","null","html-keyboard-response","123","2.0.0","105775","pd7te4rv8m5","smaller"," turtle","to see if we automatically process item size","no","<div style=""font-size:60px;"">+</div>","null","","","","","","",""
"","403","image-keyboard-response","124","2.0.0","106180","pd7te4rv8m5","smaller"," turtle","to see if we automatically process item size","no","stimuli/13-Inongruent.jpg","z","","","","","left","z","true"
"","null","html-keyboard-response","125","2.0.0","107086","pd7te4rv8m5","smaller"," turtle","to see if we automatically process item size","no","<p>Correct!</p>","null","","","","","","",""
"","null","html-keyboard-response","126","2.0.0","108093","pd7te4rv8m5","smaller"," turtle","to see if we automatically process item size","no","<div style=""font-size:60px;"">+</div>","null","","","","","","",""
"","427","image-keyboard-response","127","2.0.0","108522","pd7te4rv8m5","smaller"," turtle","to see if we automatically process item size","no","stimuli/21-Congruent.jpg","m","","","","","right","m","true"
"","null","html-keyboard-response","128","2.0.0","109430","pd7te4rv8m5","smaller"," turtle","to see if we automatically process item size","no","<p>Correct!</p>","null","","","","","","",""
"","null","html-keyboard-response","129","2.0.0","110431","pd7te4rv8m5","smaller"," turtle","to see if we automatically process item size","no","<div style=""font-size:60px;"">+</div>","null","","","","","","",""
"","447","image-keyboard-response","130","2.0.0","110880","pd7te4rv8m5","smaller"," turtle","to see if we automatically process item size","no","stimuli/20-Inongruent.jpg","z","","","","","left","z","true"
"","null","html-keyboard-response","131","2.0.0","111787","pd7te4rv8m5","smaller"," turtle","to see if we automatically process item size","no","<p>Correct!</p>","null","","","","","","",""
"","null","html-keyboard-response","132","2.0.0","112792","pd7te4rv8m5","smaller"," turtle","to see if we automatically process item size","no","<div style=""font-size:60px;"">+</div>","null","","","","","","",""
"","481","image-keyboard-response","133","2.0.0","113275","pd7te4rv8m5","smaller"," turtle","to see if we automatically process item size","no","stimuli/19-Congruent.jpg","m","","","","","right","m","true"
"","null","html-keyboard-response","134","2.0.0","114182","pd7te4rv8m5","smaller"," turtle","to see if we automatically process item size","no","<p>Correct!</p>","null","","","","","","",""
"","null","html-keyboard-response","135","2.0.0","115189","pd7te4rv8m5","smaller"," turtle","to see if we automatically process item size","no","<div style=""font-size:60px;"">+</div>","null","","","","","","",""
"","420","image-keyboard-response","136","2.0.0","115611","pd7te4rv8m5","smaller"," turtle","to see if we automatically process item size","no","stimuli/11-Inongruent.jpg","z","","","","","left","z","true"
"","null","html-keyboard-response","137","2.0.0","116518","pd7te4rv8m5","smaller"," turtle","to see if we automatically process item size","no","<p>Correct!</p>","null","","","","","","",""
"","null","html-keyboard-response","138","2.0.0","117524","pd7te4rv8m5","smaller"," turtle","to see if we automatically process item size","no","<div style=""font-size:60px;"">+</div>","null","","","","","","",""
"","387","image-keyboard-response","139","2.0.0","117913","pd7te4rv8m5","smaller"," turtle","to see if we automatically process item size","no","stimuli/7-Inongruent.jpg","z","","","","","left","z","true"
"","null","html-keyboard-response","140","2.0.0","118819","pd7te4rv8m5","smaller"," turtle","to see if we automatically process item size","no","<p>Correct!</p>","null","","","","","","",""
"","null","html-keyboard-response","141","2.0.0","119825","pd7te4rv8m5","smaller"," turtle","to see if we automatically process item size","no","<div style=""font-size:60px;"">+</div>","null","","","","","","",""
"","420","image-keyboard-response","142","2.0.0","120247","pd7te4rv8m5","smaller"," turtle","to see if we automatically process item size","no","stimuli/13-Congruent.jpg","m","","","","","right","m","true"
"","null","html-keyboard-response","143","2.0.0","121151","pd7te4rv8m5","smaller"," turtle","to see if we automatically process item size","no","<p>Correct!</p>","null","","","","","","",""
"","null","html-keyboard-response","144","2.0.0","122154","pd7te4rv8m5","smaller"," turtle","to see if we automatically process item size","no","<div style=""font-size:60px;"">+</div>","null","","","","","","",""
"","419","image-keyboard-response","145","2.0.0","122575","pd7te4rv8m5","smaller"," turtle","to see if we automatically process item size","no","stimuli/24-Congruent.jpg","m","","","","","right","m","true"
"","null","html-keyboard-response","146","2.0.0","123481","pd7te4rv8m5","smaller"," turtle","to see if we automatically process item size","no","<p>Correct!</p>","null","","","","","","",""
"","null","html-keyboard-response","147","2.0.0","124487","pd7te4rv8m5","smaller"," turtle","to see if we automatically process item size","no","<div style=""font-size:60px;"">+</div>","null","","","","","","",""
"","653","image-keyboard-response","148","2.0.0","125142","pd7te4rv8m5","smaller"," turtle","to see if we automatically process item size","no","stimuli/17-Congruent.jpg","m","","","","","right","m","true"
"","null","html-keyboard-response","149","2.0.0","126045","pd7te4rv8m5","smaller"," turtle","to see if we automatically process item size","no","<p>Correct!</p>","null","","","","","","",""
"","null","html-keyboard-response","150","2.0.0","127052","pd7te4rv8m5","smaller"," turtle","to see if we automatically process item size","no","<div style=""font-size:60px;"">+</div>","null","","","","","","",""
"","421","image-keyboard-response","151","2.0.0","127475","pd7te4rv8m5","smaller"," turtle","to see if we automatically process item size","no","stimuli/4-Inongruent.jpg","z","","","","","left","z","true"
"","null","html-keyboard-response","152","2.0.0","128377","pd7te4rv8m5","smaller"," turtle","to see if we automatically process item size","no","<p>Correct!</p>","null","","","","","","",""
"","null","html-keyboard-response","153","2.0.0","129384","pd7te4rv8m5","smaller"," turtle","to see if we automatically process item size","no","<div style=""font-size:60px;"">+</div>","null","","","","","","",""
"","425","image-keyboard-response","154","2.0.0","129812","pd7te4rv8m5","smaller"," turtle","to see if we automatically process item size","no","stimuli/27-Congruent.jpg","m","","","","","right","m","true"
"","null","html-keyboard-response","155","2.0.0","130715","pd7te4rv8m5","smaller"," turtle","to see if we automatically process item size","no","<p>Correct!</p>","null","","","","","","",""
"","null","html-keyboard-response","156","2.0.0","131721","pd7te4rv8m5","smaller"," turtle","to see if we automatically process item size","no","<div style=""font-size:60px;"">+</div>","null","","","","","","",""
"","443","image-keyboard-response","157","2.0.0","132165","pd7te4rv8m5","smaller"," turtle","to see if we automatically process item size","no","stimuli/28-Congruent.jpg","m","","","","","right","m","true"
"","null","html-keyboard-response","158","2.0.0","133072","pd7te4rv8m5","smaller"," turtle","to see if we automatically process item size","no","<p>Correct!</p>","null","","","","","","",""
"","null","html-keyboard-response","159","2.0.0","134077","pd7te4rv8m5","smaller"," turtle","to see if we automatically process item size","no","<div style=""font-size:60px;"">+</div>","null","","","","","","",""
"","405","image-keyboard-response","160","2.0.0","134484","pd7te4rv8m5","smaller"," turtle","to see if we automatically process item size","no","stimuli/18-Congruent.jpg","m","","","","","right","m","true"
"","null","html-keyboard-response","161","2.0.0","135391","pd7te4rv8m5","smaller"," turtle","to see if we automatically process item size","no","<p>Correct!</p>","null","","","","","","",""
"","null","html-keyboard-response","162","2.0.0","136395","pd7te4rv8m5","smaller"," turtle","to see if we automatically process item size","no","<div style=""font-size:60px;"">+</div>","null","","","","","","",""
"","394","image-keyboard-response","163","2.0.0","136792","pd7te4rv8m5","smaller"," turtle","to see if we automatically process item size","no","stimuli/2-Congruent.jpg","m","","","","","right","m","true"
"","null","html-keyboard-response","164","2.0.0","137695","pd7te4rv8m5","smaller"," turtle","to see if we automatically process item size","no","<p>Correct!</p>","null","","","","","","",""
"","null","html-keyboard-response","165","2.0.0","138702","pd7te4rv8m5","smaller"," turtle","to see if we automatically process item size","no","<div style=""font-size:60px;"">+</div>","null","","","","","","",""
"","349","image-keyboard-response","166","2.0.0","139053","pd7te4rv8m5","smaller"," turtle","to see if we automatically process item size","no","stimuli/29-Inongruent.jpg","z","","","","","left","z","true"
"","null","html-keyboard-response","167","2.0.0","139960","pd7te4rv8m5","smaller"," turtle","to see if we automatically process item size","no","<p>Correct!</p>","null","","","","","","",""
"","null","html-keyboard-response","168","2.0.0","140965","pd7te4rv8m5","smaller"," turtle","to see if we automatically process item size","no","<div style=""font-size:60px;"">+</div>","null","","","","","","",""
"","434","image-keyboard-response","169","2.0.0","141401","pd7te4rv8m5","smaller"," turtle","to see if we automatically process item size","no","stimuli/31-Inongruent.jpg","z","","","","","left","z","true"
"","null","html-keyboard-response","170","2.0.0","142307","pd7te4rv8m5","smaller"," turtle","to see if we automatically process item size","no","<p>Correct!</p>","null","","","","","","",""
"","null","html-keyboard-response","171","2.0.0","143315","pd7te4rv8m5","smaller"," turtle","to see if we automatically process item size","no","<div style=""font-size:60px;"">+</div>","null","","","","","","",""
"","360","image-keyboard-response","172","2.0.0","143676","pd7te4rv8m5","smaller"," turtle","to see if we automatically process item size","no","stimuli/4-Inongruent.jpg","z","","","","","left","z","true"
"","null","html-keyboard-response","173","2.0.0","144583","pd7te4rv8m5","smaller"," turtle","to see if we automatically process item size","no","<p>Correct!</p>","null","","","","","","",""
"","null","html-keyboard-response","174","2.0.0","145590","pd7te4rv8m5","smaller"," turtle","to see if we automatically process item size","no","<div style=""font-size:60px;"">+</div>","null","","","","","","",""
"","378","image-keyboard-response","175","2.0.0","145970","pd7te4rv8m5","smaller"," turtle","to see if we automatically process item size","no","stimuli/28-Congruent.jpg","m","","","","","right","m","true"
"","null","html-keyboard-response","176","2.0.0","146874","pd7te4rv8m5","smaller"," turtle","to see if we automatically process item size","no","<p>Correct!</p>","null","","","","","","",""
"","null","html-keyboard-response","177","2.0.0","147881","pd7te4rv8m5","smaller"," turtle","to see if we automatically process item size","no","<div style=""font-size:60px;"">+</div>","null","","","","","","",""
"","383","image-keyboard-response","178","2.0.0","148268","pd7te4rv8m5","smaller"," turtle","to see if we automatically process item size","no","stimuli/9-Inongruent.jpg","z","","","","","left","z","true"
"","null","html-keyboard-response","179","2.0.0","149173","pd7te4rv8m5","smaller"," turtle","to see if we automatically process item size","no","<p>Correct!</p>","null","","","","","","",""
"","null","html-keyboard-response","180","2.0.0","150180","pd7te4rv8m5","smaller"," turtle","to see if we automatically process item size","no","<div style=""font-size:60px;"">+</div>","null","","","","","","",""
"","414","image-keyboard-response","181","2.0.0","150597","pd7te4rv8m5","smaller"," turtle","to see if we automatically process item size","no","stimuli/33-Inongruent.jpg","z","","","","","left","z","true"
"","null","html-keyboard-response","182","2.0.0","151503","pd7te4rv8m5","smaller"," turtle","to see if we automatically process item size","no","<p>Correct!</p>","null","","","","","","",""
"","null","html-keyboard-response","183","2.0.0","152510","pd7te4rv8m5","smaller"," turtle","to see if we automatically process item size","no","<div style=""font-size:60px;"">+</div>","null","","","","","","",""
"","358","image-keyboard-response","184","2.0.0","152870","pd7te4rv8m5","smaller"," turtle","to see if we automatically process item size","no","stimuli/4-Congruent.jpg","m","","","","","right","m","true"
"","null","html-keyboard-response","185","2.0.0","153776","pd7te4rv8m5","smaller"," turtle","to see if we automatically process item size","no","<p>Correct!</p>","null","","","","","","",""
"","null","html-keyboard-response","186","2.0.0","154781","pd7te4rv8m5","smaller"," turtle","to see if we automatically process item size","no","<div style=""font-size:60px;"">+</div>","null","","","","","","",""
"","481","image-keyboard-response","187","2.0.0","155262","pd7te4rv8m5","smaller"," turtle","to see if we automatically process item size","no","stimuli/3-Congruent.jpg","m","","","","","right","m","true"
"","null","html-keyboard-response","188","2.0.0","156169","pd7te4rv8m5","smaller"," turtle","to see if we automatically process item size","no","<p>Correct!</p>","null","","","","","","",""
"","null","html-keyboard-response","189","2.0.0","157174","pd7te4rv8m5","smaller"," turtle","to see if we automatically process item size","no","<div style=""font-size:60px;"">+</div>","null","","","","","","",""
"","372","image-keyboard-response","190","2.0.0","157549","pd7te4rv8m5","smaller"," turtle","to see if we automatically process item size","no","stimuli/35-Inongruent.jpg","z","","","","","left","z","true"
"","null","html-keyboard-response","191","2.0.0","158451","pd7te4rv8m5","smaller"," turtle","to see if we automatically process item size","no","<p>Correct!</p>","null","","","","","","",""
"","null","html-keyboard-response","192","2.0.0","159456","pd7te4rv8m5","smaller"," turtle","to see if we automatically process item size","no","<div style=""font-size:60px;"">+</div>","null","","","","","","",""
"","400","image-keyboard-response","193","2.0.0","159858","pd7te4rv8m5","smaller"," turtle","to see if we automatically process item size","no","stimuli/32-Congruent.jpg","m","","","","","right","m","true"
"","null","html-keyboard-response","194","2.0.0","160761","pd7te4rv8m5","smaller"," turtle","to see if we automatically process item size","no","<p>Correct!</p>","null","","","","","","",""
"","null","html-keyboard-response","195","2.0.0","161767","pd7te4rv8m5","smaller"," turtle","to see if we automatically process item size","no","<div style=""font-size:60px;"">+</div>","null","","","","","","",""
"","356","image-keyboard-response","196","2.0.0","162125","pd7te4rv8m5","smaller"," turtle","to see if we automatically process item size","no","stimuli/23-Congruent.jpg","m","","","","","right","m","true"
"","null","html-keyboard-response","197","2.0.0","163033","pd7te4rv8m5","smaller"," turtle","to see if we automatically process item size","no","<p>Correct!</p>","null","","","","","","",""
"","null","html-keyboard-response","198","2.0.0","164038","pd7te4rv8m5","smaller"," turtle","to see if we automatically process item size","no","<div style=""font-size:60px;"">+</div>","null","","","","","","",""
"","371","image-keyboard-response","199","2.0.0","164411","pd7te4rv8m5","smaller"," turtle","to see if we automatically process item size","no","stimuli/23-Inongruent.jpg","z","","","","","left","z","true"
"","null","html-keyboard-response","200","2.0.0","165317","pd7te4rv8m5","smaller"," turtle","to see if we automatically process item size","no","<p>Correct!</p>","null","","","","","","",""
"","null","html-keyboard-response","201","2.0.0","166324","pd7te4rv8m5","smaller"," turtle","to see if we automatically process item size","no","<div style=""font-size:60px;"">+</div>","null","","","","","","",""
"","635","image-keyboard-response","202","2.0.0","166962","pd7te4rv8m5","smaller"," turtle","to see if we automatically process item size","no","stimuli/34-Inongruent.jpg","z","","","","","left","z","true"
"","null","html-keyboard-response","203","2.0.0","167866","pd7te4rv8m5","smaller"," turtle","to see if we automatically process item size","no","<p>Correct!</p>","null","","","","","","",""
"","null","html-keyboard-response","204","2.0.0","168873","pd7te4rv8m5","smaller"," turtle","to see if we automatically process item size","no","<div style=""font-size:60px;"">+</div>","null","","","","","","",""
"","495","image-keyboard-response","205","2.0.0","169370","pd7te4rv8m5","smaller"," turtle","to see if we automatically process item size","no","stimuli/30-Congruent.jpg","m","","","","","right","m","true"
"","null","html-keyboard-response","206","2.0.0","170274","pd7te4rv8m5","smaller"," turtle","to see if we automatically process item size","no","<p>Correct!</p>","null","","","","","","",""
"","null","html-keyboard-response","207","2.0.0","171279","pd7te4rv8m5","smaller"," turtle","to see if we automatically process item size","no","<div style=""font-size:60px;"">+</div>","null","","","","","","",""
"","466","image-keyboard-response","208","2.0.0","171747","pd7te4rv8m5","smaller"," turtle","to see if we automatically process item size","no","stimuli/26-Inongruent.jpg","z","","","","","left","z","true"
"","null","html-keyboard-response","209","2.0.0","172653","pd7te4rv8m5","smaller"," turtle","to see if we automatically process item size","no","<p>Correct!</p>","null","","","","","","",""
"","null","html-keyboard-response","210","2.0.0","173660","pd7te4rv8m5","smaller"," turtle","to see if we automatically process item size","no","<div style=""font-size:60px;"">+</div>","null","","","","","","",""
"","459","image-keyboard-response","211","2.0.0","174120","pd7te4rv8m5","smaller"," turtle","to see if we automatically process item size","no","stimuli/19-Congruent.jpg","m","","","","","right","m","true"
"","null","html-keyboard-response","212","2.0.0","175027","pd7te4rv8m5","smaller"," turtle","to see if we automatically process item size","no","<p>Correct!</p>","null","","","","","","",""
"","null","html-keyboard-response","213","2.0.0","176031","pd7te4rv8m5","smaller"," turtle","to see if we automatically process item size","no","<div style=""font-size:60px;"">+</div>","null","","","","","","",""
"","505","image-keyboard-response","214","2.0.0","176538","pd7te4rv8m5","smaller"," turtle","to see if we automatically process item size","no","stimuli/9-Congruent.jpg","m","","","","","right","m","true"
"","null","html-keyboard-response","215","2.0.0","177442","pd7te4rv8m5","smaller"," turtle","to see if we automatically process item size","no","<p>Correct!</p>","null","","","","","","",""
"","null","html-keyboard-response","216","2.0.0","178447","pd7te4rv8m5","smaller"," turtle","to see if we automatically process item size","no","<div style=""font-size:60px;"">+</div>","null","","","","","","",""
"","503","image-keyboard-response","217","2.0.0","178952","pd7te4rv8m5","smaller"," turtle","to see if we automatically process item size","no","stimuli/26-Congruent.jpg","m","","","","","right","m","true"
"","null","html-keyboard-response","218","2.0.0","179855","pd7te4rv8m5","smaller"," turtle","to see if we automatically process item size","no","<p>Correct!</p>","null","","","","","","",""
"","null","html-keyboard-response","219","2.0.0","180861","pd7te4rv8m5","smaller"," turtle","to see if we automatically process item size","no","<div style=""font-size:60px;"">+</div>","null","","","","","","",""
"","446","image-keyboard-response","220","2.0.0","181309","pd7te4rv8m5","smaller"," turtle","to see if we automatically process item size","no","stimuli/25-Inongruent.jpg","z","","","","","left","z","true"
"","null","html-keyboard-response","221","2.0.0","182214","pd7te4rv8m5","smaller"," turtle","to see if we automatically process item size","no","<p>Correct!</p>","null","","","","","","",""
"","null","html-keyboard-response","222","2.0.0","183220","pd7te4rv8m5","smaller"," turtle","to see if we automatically process item size","no","<div style=""font-size:60px;"">+</div>","null","","","","","","",""
"","416","image-keyboard-response","223","2.0.0","183638","pd7te4rv8m5","smaller"," turtle","to see if we automatically process item size","no","stimuli/13-Congruent.jpg","m","","","","","right","m","true"
"","null","html-keyboard-response","224","2.0.0","184544","pd7te4rv8m5","smaller"," turtle","to see if we automatically process item size","no","<p>Correct!</p>","null","","","","","","",""
"","null","html-keyboard-response","225","2.0.0","185550","pd7te4rv8m5","smaller"," turtle","to see if we automatically process item size","no","<div style=""font-size:60px;"">+</div>","null","","","","","","",""
"","409","image-keyboard-response","226","2.0.0","185962","pd7te4rv8m5","smaller"," turtle","to see if we automatically process item size","no","stimuli/10-Inongruent.jpg","z","","","","","left","z","true"
"","null","html-keyboard-response","227","2.0.0","186865","pd7te4rv8m5","smaller"," turtle","to see if we automatically process item size","no","<p>Correct!</p>","null","","","","","","",""
"","null","html-keyboard-response","228","2.0.0","187871","pd7te4rv8m5","smaller"," turtle","to see if we automatically process item size","no","<div style=""font-size:60px;"">+</div>","null","","","","","","",""
"","470","image-keyboard-response","229","2.0.0","188342","pd7te4rv8m5","smaller"," turtle","to see if we automatically process item size","no","stimuli/15-Congruent.jpg","m","","","","","right","m","true"
"","null","html-keyboard-response","230","2.0.0","189249","pd7te4rv8m5","smaller"," turtle","to see if we automatically process item size","no","<p>Correct!</p>","null","","","","","","",""
"","null","html-keyboard-response","231","2.0.0","190253","pd7te4rv8m5","smaller"," turtle","to see if we automatically process item size","no","<div style=""font-size:60px;"">+</div>","null","","","","","","",""
"","489","image-keyboard-response","232","2.0.0","190744","pd7te4rv8m5","smaller"," turtle","to see if we automatically process item size","no","stimuli/34-Congruent.jpg","m","","","","","right","m","true"
"","null","html-keyboard-response","233","2.0.0","191651","pd7te4rv8m5","smaller"," turtle","to see if we automatically process item size","no","<p>Correct!</p>","null","","","","","","",""
"","null","html-keyboard-response","234","2.0.0","192658","pd7te4rv8m5","smaller"," turtle","to see if we automatically process item size","no","<div style=""font-size:60px;"">+</div>","null","","","","","","",""
"","429","image-keyboard-response","235","2.0.0","193089","pd7te4rv8m5","smaller"," turtle","to see if we automatically process item size","no","stimuli/6-Congruent.jpg","m","","","","","right","m","true"
"","null","html-keyboard-response","236","2.0.0","193995","pd7te4rv8m5","smaller"," turtle","to see if we automatically process item size","no","<p>Correct!</p>","null","","","","","","",""
"","null","html-keyboard-response","237","2.0.0","195002","pd7te4rv8m5","smaller"," turtle","to see if we automatically process item size","no","<div style=""font-size:60px;"">+</div>","null","","","","","","",""
"","474","image-keyboard-response","238","2.0.0","195477","pd7te4rv8m5","smaller"," turtle","to see if we automatically process item size","no","stimuli/30-Congruent.jpg","m","","","","","right","m","true"
"","null","html-keyboard-response","239","2.0.0","196384","pd7te4rv8m5","smaller"," turtle","to see if we automatically process item size","no","<p>Correct!</p>","null","","","","","","",""
"","null","html-keyboard-response","240","2.0.0","197390","pd7te4rv8m5","smaller"," turtle","to see if we automatically process item size","no","<div style=""font-size:60px;"">+</div>","null","","","","","","",""
"","436","image-keyboard-response","241","2.0.0","197828","pd7te4rv8m5","smaller"," turtle","to see if we automatically process item size","no","stimuli/29-Congruent.jpg","m","","","","","right","m","true"
"","null","html-keyboard-response","242","2.0.0","198734","pd7te4rv8m5","smaller"," turtle","to see if we automatically process item size","no","<p>Correct!</p>","null","","","","","","",""
"","null","html-keyboard-response","243","2.0.0","199741","pd7te4rv8m5","smaller"," turtle","to see if we automatically process item size","no","<div style=""font-size:60px;"">+</div>","null","","","","","","",""
"","447","image-keyboard-response","244","2.0.0","200191","pd7te4rv8m5","smaller"," turtle","to see if we automatically process item size","no","stimuli/25-Congruent.jpg","m","","","","","right","m","true"
"","null","html-keyboard-response","245","2.0.0","201092","pd7te4rv8m5","smaller"," turtle","to see if we automatically process item size","no","<p>Correct!</p>","null","","","","","","",""
"","null","html-keyboard-response","246","2.0.0","202099","pd7te4rv8m5","smaller"," turtle","to see if we automatically process item size","no","<div style=""font-size:60px;"">+</div>","null","","","","","","",""
"","394","image-keyboard-response","247","2.0.0","202495","pd7te4rv8m5","smaller"," turtle","to see if we automatically process item size","no","stimuli/22-Inongruent.jpg","z","","","","","left","z","true"
"","null","html-keyboard-response","248","2.0.0","203400","pd7te4rv8m5","smaller"," turtle","to see if we automatically process item size","no","<p>Correct!</p>","null","","","","","","",""
"","null","html-keyboard-response","249","2.0.0","204407","pd7te4rv8m5","smaller"," turtle","to see if we automatically process item size","no","<div style=""font-size:60px;"">+</div>","null","","","","","","",""
"","443","image-keyboard-response","250","2.0.0","204852","pd7te4rv8m5","smaller"," turtle","to see if we automatically process item size","no","stimuli/15-Inongruent.jpg","z","","","","","left","z","true"
"","null","html-keyboard-response","251","2.0.0","205759","pd7te4rv8m5","smaller"," turtle","to see if we automatically process item size","no","<p>Correct!</p>","null","","","","","","",""
"","null","html-keyboard-response","252","2.0.0","206766","pd7te4rv8m5","smaller"," turtle","to see if we automatically process item size","no","<div style=""font-size:60px;"">+</div>","null","","","","","","",""
"","329","image-keyboard-response","253","2.0.0","207097","pd7te4rv8m5","smaller"," turtle","to see if we automatically process item size","no","stimuli/33-Congruent.jpg","m","","","","","right","m","true"
"","null","html-keyboard-response","254","2.0.0","208004","pd7te4rv8m5","smaller"," turtle","to see if we automatically process item size","no","<p>Correct!</p>","null","","","","","","",""
"","null","html-keyboard-response","255","2.0.0","209009","pd7te4rv8m5","smaller"," turtle","to see if we automatically process item size","no","<div style=""font-size:60px;"">+</div>","null","","","","","","",""
"","350","image-keyboard-response","256","2.0.0","209362","pd7te4rv8m5","smaller"," turtle","to see if we automatically process item size","no","stimuli/25-Inongruent.jpg","z","","","","","left","z","true"
"","null","html-keyboard-response","257","2.0.0","210269","pd7te4rv8m5","smaller"," turtle","to see if we automatically process item size","no","<p>Correct!</p>","null","","","","","","",""
"","null","html-keyboard-response","258","2.0.0","211275","pd7te4rv8m5","smaller"," turtle","to see if we automatically process item size","no","<div style=""font-size:60px;"">+</div>","null","","","","","","",""
"","389","image-keyboard-response","259","2.0.0","211666","pd7te4rv8m5","smaller"," turtle","to see if we automatically process item size","no","stimuli/17-Inongruent.jpg","z","","","","","left","z","true"
"","null","html-keyboard-response","260","2.0.0","212569","pd7te4rv8m5","smaller"," turtle","to see if we automatically process item size","no","<p>Correct!</p>","null","","","","","","",""
"","null","html-keyboard-response","261","2.0.0","213573","pd7te4rv8m5","smaller"," turtle","to see if we automatically process item size","no","<div style=""font-size:60px;"">+</div>","null","","","","","","",""
"","404","image-keyboard-response","262","2.0.0","213979","pd7te4rv8m5","smaller"," turtle","to see if we automatically process item size","no","stimuli/21-Congruent.jpg","m","","","","","right","m","true"
"","null","html-keyboard-response","263","2.0.0","214886","pd7te4rv8m5","smaller"," turtle","to see if we automatically process item size","no","<p>Correct!</p>","null","","","","","","",""
"","null","html-keyboard-response","264","2.0.0","215893","pd7te4rv8m5","smaller"," turtle","to see if we automatically process item size","no","<div style=""font-size:60px;"">+</div>","null","","","","","","",""
"","432","image-keyboard-response","265","2.0.0","216326","pd7te4rv8m5","smaller"," turtle","to see if we automatically process item size","no","stimuli/7-Congruent.jpg","m","","","","","right","m","true"
"","null","html-keyboard-response","266","2.0.0","217228","pd7te4rv8m5","smaller"," turtle","to see if we automatically process item size","no","<p>Correct!</p>","null","","","","","","",""
"","null","html-keyboard-response","267","2.0.0","218235","pd7te4rv8m5","smaller"," turtle","to see if we automatically process item size","no","<div style=""font-size:60px;"">+</div>","null","","","","","","",""
"","445","image-keyboard-response","268","2.0.0","218681","pd7te4rv8m5","smaller"," turtle","to see if we automatically process item size","no","stimuli/7-Congruent.jpg","m","","","","","right","m","true"
"","null","html-keyboard-response","269","2.0.0","219588","pd7te4rv8m5","smaller"," turtle","to see if we automatically process item size","no","<p>Correct!</p>","null","","","","","","",""
"","null","html-keyboard-response","270","2.0.0","220592","pd7te4rv8m5","smaller"," turtle","to see if we automatically process item size","no","<div style=""font-size:60px;"">+</div>","null","","","","","","",""
"","446","image-keyboard-response","271","2.0.0","221040","pd7te4rv8m5","smaller"," turtle","to see if we automatically process item size","no","stimuli/23-Congruent.jpg","m","","","","","right","m","true"
"","null","html-keyboard-response","272","2.0.0","221945","pd7te4rv8m5","smaller"," turtle","to see if we automatically process item size","no","<p>Correct!</p>","null","","","","","","",""
"","null","html-keyboard-response","273","2.0.0","222949","pd7te4rv8m5","smaller"," turtle","to see if we automatically process item size","no","<div style=""font-size:60px;"">+</div>","null","","","","","","",""
"","413","image-keyboard-response","274","2.0.0","223365","pd7te4rv8m5","smaller"," turtle","to see if we automatically process item size","no","stimuli/36-Congruent.jpg","m","","","","","right","m","true"
"","null","html-keyboard-response","275","2.0.0","224268","pd7te4rv8m5","smaller"," turtle","to see if we automatically process item size","no","<p>Correct!</p>","null","","","","","","",""
"","null","html-keyboard-response","276","2.0.0","225275","pd7te4rv8m5","smaller"," turtle","to see if we automatically process item size","no","<div style=""font-size:60px;"">+</div>","null","","","","","","",""
"","590","image-keyboard-response","277","2.0.0","225868","pd7te4rv8m5","smaller"," turtle","to see if we automatically process item size","no","stimuli/7-Inongruent.jpg","z","","","","","left","z","true"
"","null","html-keyboard-response","278","2.0.0","226772","pd7te4rv8m5","smaller"," turtle","to see if we automatically process item size","no","<p>Correct!</p>","null","","","","","","",""
"","null","html-keyboard-response","279","2.0.0","227776","pd7te4rv8m5","smaller"," turtle","to see if we automatically process item size","no","<div style=""font-size:60px;"">+</div>","null","","","","","","",""
"","802","image-keyboard-response","280","2.0.0","228580","pd7te4rv8m5","smaller"," turtle","to see if we automatically process item size","no","stimuli/17-Inongruent.jpg","z","","","","","left","z","true"
"","null","html-keyboard-response","281","2.0.0","229487","pd7te4rv8m5","smaller"," turtle","to see if we automatically process item size","no","<p>Correct!</p>","null","","","","","","",""
"","null","html-keyboard-response","282","2.0.0","230490","pd7te4rv8m5","smaller"," turtle","to see if we automatically process item size","no","<div style=""font-size:60px;"">+</div>","null","","","","","","",""
"","440","image-keyboard-response","283","2.0.0","230932","pd7te4rv8m5","smaller"," turtle","to see if we automatically process item size","no","stimuli/3-Inongruent.jpg","z","","","","","left","z","true"
"","null","html-keyboard-response","284","2.0.0","231839","pd7te4rv8m5","smaller"," turtle","to see if we automatically process item size","no","<p>Correct!</p>","null","","","","","","",""
"","null","html-keyboard-response","285","2.0.0","232846","pd7te4rv8m5","smaller"," turtle","to see if we automatically process item size","no","<div style=""font-size:60px;"">+</div>","null","","","","","","",""
"","581","image-keyboard-response","286","2.0.0","233428","pd7te4rv8m5","smaller"," turtle","to see if we automatically process item size","no","stimuli/33-Inongruent.jpg","z","","","","","left","z","true"
"","null","html-keyboard-response","287","2.0.0","234334","pd7te4rv8m5","smaller"," turtle","to see if we automatically process item size","no","<p>Correct!</p>","null","","","","","","",""
"","null","html-keyboard-response","288","2.0.0","235339","pd7te4rv8m5","smaller"," turtle","to see if we automatically process item size","no","<div style=""font-size:60px;"">+</div>","null","","","","","","",""
"","430","image-keyboard-response","289","2.0.0","235771","pd7te4rv8m5","smaller"," turtle","to see if we automatically process item size","no","stimuli/32-Inongruent.jpg","z","","","","","left","z","true"
"","null","html-keyboard-response","290","2.0.0","236673","pd7te4rv8m5","smaller"," turtle","to see if we automatically process item size","no","<p>Correct!</p>","null","","","","","","",""
"","null","html-keyboard-response","291","2.0.0","237680","pd7te4rv8m5","smaller"," turtle","to see if we automatically process item size","no","<div style=""font-size:60px;"">+</div>","null","","","","","","",""
"","595","image-keyboard-response","292","2.0.0","238277","pd7te4rv8m5","smaller"," turtle","to see if we automatically process item size","no","stimuli/8-Inongruent.jpg","z","","","","","left","z","true"
"","null","html-keyboard-response","293","2.0.0","239184","pd7te4rv8m5","smaller"," turtle","to see if we automatically process item size","no","<p>Correct!</p>","null","","","","","","",""
"","null","html-keyboard-response","294","2.0.0","240191","pd7te4rv8m5","smaller"," turtle","to see if we automatically process item size","no","<div style=""font-size:60px;"">+</div>","null","","","","","","",""
"","771","image-keyboard-response","295","2.0.0","240963","pd7te4rv8m5","smaller"," turtle","to see if we automatically process item size","no","stimuli/22-Congruent.jpg","m","","","","","right","m","true"
"","null","html-keyboard-response","296","2.0.0","241867","pd7te4rv8m5","smaller"," turtle","to see if we automatically process item size","no","<p>Correct!</p>","null","","","","","","",""
"","null","html-keyboard-response","297","2.0.0","242871","pd7te4rv8m5","smaller"," turtle","to see if we automatically process item size","no","<div style=""font-size:60px;"">+</div>","null","","","","","","",""
"","742","image-keyboard-response","298","2.0.0","243616","pd7te4rv8m5","smaller"," turtle","to see if we automatically process item size","no","stimuli/14-Inongruent.jpg","z","","","","","left","z","true"
"","null","html-keyboard-response","299","2.0.0","244521","pd7te4rv8m5","smaller"," turtle","to see if we automatically process item size","no","<p>Correct!</p>","null","","","","","","",""
"","null","html-keyboard-response","300","2.0.0","245525","pd7te4rv8m5","smaller"," turtle","to see if we automatically process item size","no","<div style=""font-size:60px;"">+</div>","null","","","","","","",""
"","563","image-keyboard-response","301","2.0.0","246091","pd7te4rv8m5","smaller"," turtle","to see if we automatically process item size","no","stimuli/31-Inongruent.jpg","z","","","","","left","z","true"
"","null","html-keyboard-response","302","2.0.0","246997","pd7te4rv8m5","smaller"," turtle","to see if we automatically process item size","no","<p>Correct!</p>","null","","","","","","",""
"","null","html-keyboard-response","303","2.0.0","248002","pd7te4rv8m5","smaller"," turtle","to see if we automatically process item size","no","<div style=""font-size:60px;"">+</div>","null","","","","","","",""
"","670","image-keyboard-response","304","2.0.0","248674","pd7te4rv8m5","smaller"," turtle","to see if we automatically process item size","no","stimuli/14-Inongruent.jpg","z","","","","","left","z","true"
"","null","html-keyboard-response","305","2.0.0","249580","pd7te4rv8m5","smaller"," turtle","to see if we automatically process item size","no","<p>Correct!</p>","null","","","","","","",""
"","null","html-keyboard-response","306","2.0.0","250587","pd7te4rv8m5","smaller"," turtle","to see if we automatically process item size","no","<div style=""font-size:60px;"">+</div>","null","","","","","","",""
"","430","image-keyboard-response","307","2.0.0","251018","pd7te4rv8m5","smaller"," turtle","to see if we automatically process item size","no","stimuli/35-Inongruent.jpg","z","","","","","left","z","true"
"","null","html-keyboard-response","308","2.0.0","251926","pd7te4rv8m5","smaller"," turtle","to see if we automatically process item size","no","<p>Correct!</p>","null","","","","","","",""
"","null","html-keyboard-response","309","2.0.0","252934","pd7te4rv8m5","smaller"," turtle","to see if we automatically process item size","no","<div style=""font-size:60px;"">+</div>","null","","","","","","",""
"","489","image-keyboard-response","310","2.0.0","253425","pd7te4rv8m5","smaller"," turtle","to see if we automatically process item size","no","stimuli/24-Congruent.jpg","m","","","","","right","m","true"
"","null","html-keyboard-response","311","2.0.0","254332","pd7te4rv8m5","smaller"," turtle","to see if we automatically process item size","no","<p>Correct!</p>","null","","","","","","",""
"","null","html-keyboard-response","312","2.0.0","255339","pd7te4rv8m5","smaller"," turtle","to see if we automatically process item size","no","<div style=""font-size:60px;"">+</div>","null","","","","","","",""
"","464","image-keyboard-response","313","2.0.0","255804","pd7te4rv8m5","smaller"," turtle","to see if we automatically process item size","no","stimuli/5-Congruent.jpg","m","","","","","right","m","true"
"","null","html-keyboard-response","314","2.0.0","256711","pd7te4rv8m5","smaller"," turtle","to see if we automatically process item size","no","<p>Correct!</p>","null","","","","","","",""
"","null","html-keyboard-response","315","2.0.0","257718","pd7te4rv8m5","smaller"," turtle","to see if we automatically process item size","no","<div style=""font-size:60px;"">+</div>","null","","","","","","",""
"","406","image-keyboard-response","316","2.0.0","258126","pd7te4rv8m5","smaller"," turtle","to see if we automatically process item size","no","stimuli/8-Congruent.jpg","m","","","","","right","m","true"
"","null","html-keyboard-response","317","2.0.0","259032","pd7te4rv8m5","smaller"," turtle","to see if we automatically process item size","no","<p>Correct!</p>","null","","","","","","",""
"","null","html-keyboard-response","318","2.0.0","260039","pd7te4rv8m5","smaller"," turtle","to see if we automatically process item size","no","<div style=""font-size:60px;"">+</div>","null","","","","","","",""
"","423","image-keyboard-response","319","2.0.0","260466","pd7te4rv8m5","smaller"," turtle","to see if we automatically process item size","no","stimuli/6-Congruent.jpg","m","","","","","right","m","true"
"","null","html-keyboard-response","320","2.0.0","261372","pd7te4rv8m5","smaller"," turtle","to see if we automatically process item size","no","<p>Correct!</p>","null","","","","","","",""
"","null","html-keyboard-response","321","2.0.0","262378","pd7te4rv8m5","smaller"," turtle","to see if we automatically process item size","no","<div style=""font-size:60px;"">+</div>","null","","","","","","",""
"","397","image-keyboard-response","322","2.0.0","262778","pd7te4rv8m5","smaller"," turtle","to see if we automatically process item size","no","stimuli/36-Congruent.jpg","m","","","","","right","m","true"
"","null","html-keyboard-response","323","2.0.0","263683","pd7te4rv8m5","smaller"," turtle","to see if we automatically process item size","no","<p>Correct!</p>","null","","","","","","",""
"","null","html-keyboard-response","324","2.0.0","264689","pd7te4rv8m5","smaller"," turtle","to see if we automatically process item size","no","<div style=""font-size:60px;"">+</div>","null","","","","","","",""
"","385","image-keyboard-response","325","2.0.0","265076","pd7te4rv8m5","smaller"," turtle","to see if we automatically process item size","no","stimuli/20-Inongruent.jpg","z","","","","","left","z","true"
"","null","html-keyboard-response","326","2.0.0","265982","pd7te4rv8m5","smaller"," turtle","to see if we automatically process item size","no","<p>Correct!</p>","null","","","","","","",""
"","null","html-keyboard-response","327","2.0.0","266988","pd7te4rv8m5","smaller"," turtle","to see if we automatically process item size","no","<div style=""font-size:60px;"">+</div>","null","","","","","","",""
"","480","image-keyboard-response","328","2.0.0","267470","pd7te4rv8m5","smaller"," turtle","to see if we automatically process item size","no","stimuli/16-Inongruent.jpg","z","","","","","left","z","true"
"","null","html-keyboard-response","329","2.0.0","268377","pd7te4rv8m5","smaller"," turtle","to see if we automatically process item size","no","<p>Correct!</p>","null","","","","","","",""
"","null","html-keyboard-response","330","2.0.0","269384","pd7te4rv8m5","smaller"," turtle","to see if we automatically process item size","no","<div style=""font-size:60px;"">+</div>","null","","","","","","",""
"","410","image-keyboard-response","331","2.0.0","269796","pd7te4rv8m5","smaller"," turtle","to see if we automatically process item size","no","stimuli/26-Congruent.jpg","m","","","","","right","m","true"
"","null","html-keyboard-response","332","2.0.0","270702","pd7te4rv8m5","smaller"," turtle","to see if we automatically process item size","no","<p>Correct!</p>","null","","","","","","",""
"","null","html-keyboard-response","333","2.0.0","271705","pd7te4rv8m5","smaller"," turtle","to see if we automatically process item size","no","<div style=""font-size:60px;"">+</div>","null","","","","","","",""
"","334","image-keyboard-response","334","2.0.0","272042","pd7te4rv8m5","smaller"," turtle","to see if we automatically process item size","no","stimuli/6-Inongruent.jpg","z","","","","","left","z","true"
"","null","html-keyboard-response","335","2.0.0","272947","pd7te4rv8m5","smaller"," turtle","to see if we automatically process item size","no","<p>Correct!</p>","null","","","","","","",""
"","null","html-keyboard-response","336","2.0.0","273951","pd7te4rv8m5","smaller"," turtle","to see if we automatically process item size","no","<div style=""font-size:60px;"">+</div>","null","","","","","","",""
"","378","image-keyboard-response","337","2.0.0","274331","pd7te4rv8m5","smaller"," turtle","to see if we automatically process item size","no","stimuli/5-Congruent.jpg","m","","","","","right","m","true"
"","null","html-keyboard-response","338","2.0.0","275238","pd7te4rv8m5","smaller"," turtle","to see if we automatically process item size","no","<p>Correct!</p>","null","","","","","","",""
"","null","html-keyboard-response","339","2.0.0","276240","pd7te4rv8m5","smaller"," turtle","to see if we automatically process item size","no","<div style=""font-size:60px;"">+</div>","null","","","","","","",""
"","382","image-keyboard-response","340","2.0.0","276624","pd7te4rv8m5","smaller"," turtle","to see if we automatically process item size","no","stimuli/29-Congruent.jpg","m","","","","","right","m","true"
"","null","html-keyboard-response","341","2.0.0","277530","pd7te4rv8m5","smaller"," turtle","to see if we automatically process item size","no","<p>Correct!</p>","null","","","","","","",""
"","null","html-keyboard-response","342","2.0.0","278537","pd7te4rv8m5","smaller"," turtle","to see if we automatically process item size","no","<div style=""font-size:60px;"">+</div>","null","","","","","","",""
"","436","image-keyboard-response","343","2.0.0","278975","pd7te4rv8m5","smaller"," turtle","to see if we automatically process item size","no","stimuli/16-Inongruent.jpg","z","","","","","left","z","true"
"","null","html-keyboard-response","344","2.0.0","279881","pd7te4rv8m5","smaller"," turtle","to see if we automatically process item size","no","<p>Correct!</p>","null","","","","","","",""
"","null","html-keyboard-response","345","2.0.0","280888","pd7te4rv8m5","smaller"," turtle","to see if we automatically process item size","no","<div style=""font-size:60px;"">+</div>","null","","","","","","",""
"","404","image-keyboard-response","346","2.0.0","281294","pd7te4rv8m5","smaller"," turtle","to see if we automatically process item size","no","stimuli/12-Inongruent.jpg","z","","","","","left","z","true"
"","null","html-keyboard-response","347","2.0.0","282200","pd7te4rv8m5","smaller"," turtle","to see if we automatically process item size","no","<p>Correct!</p>","null","","","","","","",""
"","null","html-keyboard-response","348","2.0.0","283204","pd7te4rv8m5","smaller"," turtle","to see if we automatically process item size","no","<div style=""font-size:60px;"">+</div>","null","","","","","","",""
"","385","image-keyboard-response","349","2.0.0","283591","pd7te4rv8m5","smaller"," turtle","to see if we automatically process item size","no","stimuli/24-Inongruent.jpg","z","","","","","left","z","true"
"","null","html-keyboard-response","350","2.0.0","284493","pd7te4rv8m5","smaller"," turtle","to see if we automatically process item size","no","<p>Correct!</p>","null","","","","","","",""
"","null","html-keyboard-response","351","2.0.0","285498","pd7te4rv8m5","smaller"," turtle","to see if we automatically process item size","no","<div style=""font-size:60px;"">+</div>","null","","","","","","",""
"","424","image-keyboard-response","352","2.0.0","285923","pd7te4rv8m5","smaller"," turtle","to see if we automatically process item size","no","stimuli/21-Inongruent.jpg","m","","","","","left","z","false"
"","null","html-keyboard-response","353","2.0.0","290931","pd7te4rv8m5","smaller"," turtle","to see if we automatically process item size","no","<p>Incorrect.</p><p>Remember to select the <b>smaller</b> image.</p><p>Continuing in 5 seconds...</p>","null","","","","","","",""
"","null","html-keyboard-response","354","2.0.0","291937","pd7te4rv8m5","smaller"," turtle","to see if we automatically process item size","no","<div style=""font-size:60px;"">+</div>","null","","","","","","",""
"","458","image-keyboard-response","355","2.0.0","292396","pd7te4rv8m5","smaller"," turtle","to see if we automatically process item size","no","stimuli/20-Congruent.jpg","m","","","","","right","m","true"
"","null","html-keyboard-response","356","2.0.0","293303","pd7te4rv8m5","smaller"," turtle","to see if we automatically process item size","no","<p>Correct!</p>","null","","","","","","",""
"","null","html-keyboard-response","357","2.0.0","294308","pd7te4rv8m5","smaller"," turtle","to see if we automatically process item size","no","<div style=""font-size:60px;"">+</div>","null","","","","","","",""
"","356","image-keyboard-response","358","2.0.0","294666","pd7te4rv8m5","smaller"," turtle","to see if we automatically process item size","no","stimuli/36-Inongruent.jpg","z","","","","","left","z","true"
"","null","html-keyboard-response","359","2.0.0","295574","pd7te4rv8m5","smaller"," turtle","to see if we automatically process item size","no","<p>Correct!</p>","null","","","","","","",""
"","null","html-keyboard-response","360","2.0.0","296581","pd7te4rv8m5","smaller"," turtle","to see if we automatically process item size","no","<div style=""font-size:60px;"">+</div>","null","","","","","","",""
"","430","image-keyboard-response","361","2.0.0","297012","pd7te4rv8m5","smaller"," turtle","to see if we automatically process item size","no","stimuli/10-Congruent.jpg","m","","","","","right","m","true"
"","null","html-keyboard-response","362","2.0.0","297918","pd7te4rv8m5","smaller"," turtle","to see if we automatically process item size","no","<p>Correct!</p>","null","","","","","","",""
"","null","html-keyboard-response","363","2.0.0","298924","pd7te4rv8m5","smaller"," turtle","to see if we automatically process item size","no","<div style=""font-size:60px;"">+</div>","null","","","","","","",""
"","404","image-keyboard-response","364","2.0.0","299329","pd7te4rv8m5","smaller"," turtle","to see if we automatically process item size","no","stimuli/12-Congruent.jpg","m","","","","","right","m","true"
"","null","html-keyboard-response","365","2.0.0","300232","pd7te4rv8m5","smaller"," turtle","to see if we automatically process item size","no","<p>Correct!</p>","null","","","","","","",""
"","null","html-keyboard-response","366","2.0.0","301238","pd7te4rv8m5","smaller"," turtle","to see if we automatically process item size","no","<div style=""font-size:60px;"">+</div>","null","","","","","","",""
"","392","image-keyboard-response","367","2.0.0","301631","pd7te4rv8m5","smaller"," turtle","to see if we automatically process item size","no","stimuli/2-Inongruent.jpg","z","","","","","left","z","true"
"","null","html-keyboard-response","368","2.0.0","302535","pd7te4rv8m5","smaller"," turtle","to see if we automatically process item size","no","<p>Correct!</p>","null","","","","","","",""
"","null","html-keyboard-response","369","2.0.0","303542","pd7te4rv8m5","smaller"," turtle","to see if we automatically process item size","no","<div style=""font-size:60px;"">+</div>","null","","","","","","",""
"","374","image-keyboard-response","370","2.0.0","303919","pd7te4rv8m5","smaller"," turtle","to see if we automatically process item size","no","stimuli/29-Inongruent.jpg","z","","","","","left","z","true"
"","null","html-keyboard-response","371","2.0.0","304825","pd7te4rv8m5","smaller"," turtle","to see if we automatically process item size","no","<p>Correct!</p>","null","","","","","","",""
"","null","html-keyboard-response","372","2.0.0","305832","pd7te4rv8m5","smaller"," turtle","to see if we automatically process item size","no","<div style=""font-size:60px;"">+</div>","null","","","","","","",""
"","475","image-keyboard-response","373","2.0.0","306309","pd7te4rv8m5","smaller"," turtle","to see if we automatically process item size","no","stimuli/27-Inongruent.jpg","z","","","","","left","z","true"
"","null","html-keyboard-response","374","2.0.0","307216","pd7te4rv8m5","smaller"," turtle","to see if we automatically process item size","no","<p>Correct!</p>","null","","","","","","",""
"","null","html-keyboard-response","375","2.0.0","308222","pd7te4rv8m5","smaller"," turtle","to see if we automatically process item size","no","<div style=""font-size:60px;"">+</div>","null","","","","","","",""
"","405","image-keyboard-response","376","2.0.0","308629","pd7te4rv8m5","smaller"," turtle","to see if we automatically process item size","no","stimuli/32-Inongruent.jpg","z","","","","","left","z","true"
"","null","html-keyboard-response","377","2.0.0","309532","pd7te4rv8m5","smaller"," turtle","to see if we automatically process item size","no","<p>Correct!</p>","null","","","","","","",""
"","null","html-keyboard-response","378","2.0.0","310539","pd7te4rv8m5","smaller"," turtle","to see if we automatically process item size","no","<div style=""font-size:60px;"">+</div>","null","","","","","","",""
"","577","image-keyboard-response","379","2.0.0","311118","pd7te4rv8m5","smaller"," turtle","to see if we automatically process item size","no","stimuli/21-Inongruent.jpg","z","","","","","left","z","true"
"","null","html-keyboard-response","380","2.0.0","312025","pd7te4rv8m5","smaller"," turtle","to see if we automatically process item size","no","<p>Correct!</p>","null","","","","","","",""
"","null","html-keyboard-response","381","2.0.0","313033","pd7te4rv8m5","smaller"," turtle","to see if we automatically process item size","no","<div style=""font-size:60px;"">+</div>","null","","","","","","",""
"","416","image-keyboard-response","382","2.0.0","313451","pd7te4rv8m5","smaller"," turtle","to see if we automatically process item size","no","stimuli/11-Inongruent.jpg","z","","","","","left","z","true"
"","null","html-keyboard-response","383","2.0.0","314358","pd7te4rv8m5","smaller"," turtle","to see if we automatically process item size","no","<p>Correct!</p>","null","","","","","","",""
"","null","html-keyboard-response","384","2.0.0","315362","pd7te4rv8m5","smaller"," turtle","to see if we automatically process item size","no","<div style=""font-size:60px;"">+</div>","null","","","","","","",""
"","450","image-keyboard-response","385","2.0.0","315814","pd7te4rv8m5","smaller"," turtle","to see if we automatically process item size","no","stimuli/12-Congruent.jpg","m","","","","","right","m","true"
"","null","html-keyboard-response","386","2.0.0","316717","pd7te4rv8m5","smaller"," turtle","to see if we automatically process item size","no","<p>Correct!</p>","null","","","","","","",""
"","null","html-keyboard-response","387","2.0.0","317724","pd7te4rv8m5","smaller"," turtle","to see if we automatically process item size","no","<div style=""font-size:60px;"">+</div>","null","","","","","","",""
"","430","image-keyboard-response","388","2.0.0","318156","pd7te4rv8m5","smaller"," turtle","to see if we automatically process item size","no","stimuli/4-Congruent.jpg","m","","","","","right","m","true"
"","null","html-keyboard-response","389","2.0.0","319062","pd7te4rv8m5","smaller"," turtle","to see if we automatically process item size","no","<p>Correct!</p>","null","","","","","","",""
"","null","html-keyboard-response","390","2.0.0","320069","pd7te4rv8m5","smaller"," turtle","to see if we automatically process item size","no","<div style=""font-size:60px;"">+</div>","null","","","","","","",""
"","537","image-keyboard-response","391","2.0.0","320608","pd7te4rv8m5","smaller"," turtle","to see if we automatically process item size","no","stimuli/12-Inongruent.jpg","z","","","","","left","z","true"
"","null","html-keyboard-response","392","2.0.0","321511","pd7te4rv8m5","smaller"," turtle","to see if we automatically process item size","no","<p>Correct!</p>","null","","","","","","",""
"","null","html-keyboard-response","393","2.0.0","322515","pd7te4rv8m5","smaller"," turtle","to see if we automatically process item size","no","<div style=""font-size:60px;"">+</div>","null","","","","","","",""
"","445","image-keyboard-response","394","2.0.0","322962","pd7te4rv8m5","smaller"," turtle","to see if we automatically process item size","no","stimuli/5-Inongruent.jpg","z","","","","","left","z","true"
"","null","html-keyboard-response","395","2.0.0","323869","pd7te4rv8m5","smaller"," turtle","to see if we automatically process item size","no","<p>Correct!</p>","null","","","","","","",""
"","null","html-keyboard-response","396","2.0.0","324874","pd7te4rv8m5","smaller"," turtle","to see if we automatically process item size","no","<div style=""font-size:60px;"">+</div>","null","","","","","","",""
"","380","image-keyboard-response","397","2.0.0","325256","pd7te4rv8m5","smaller"," turtle","to see if we automatically process item size","no","stimuli/35-Congruent.jpg","m","","","","","right","m","true"
"","null","html-keyboard-response","398","2.0.0","326158","pd7te4rv8m5","smaller"," turtle","to see if we automatically process item size","no","<p>Correct!</p>","null","","","","","","",""
"","null","html-keyboard-response","399","2.0.0","327163","pd7te4rv8m5","smaller"," turtle","to see if we automatically process item size","no","<div style=""font-size:60px;"">+</div>","null","","","","","","",""
"","343","image-keyboard-response","400","2.0.0","327521","pd7te4rv8m5","smaller"," turtle","to see if we automatically process item size","no","stimuli/30-Inongruent.jpg","z","","","","","left","z","true"
"","null","html-keyboard-response","401","2.0.0","328425","pd7te4rv8m5","smaller"," turtle","to see if we automatically process item size","no","<p>Correct!</p>","null","","","","","","",""
"","null","html-keyboard-response","402","2.0.0","329431","pd7te4rv8m5","smaller"," turtle","to see if we automatically process item size","no","<div style=""font-size:60px;"">+</div>","null","","","","","","",""
"","378","image-keyboard-response","403","2.0.0","329811","pd7te4rv8m5","smaller"," turtle","to see if we automatically process item size","no","stimuli/32-Congruent.jpg","m","","","","","right","m","true"
"","null","html-keyboard-response","404","2.0.0","330718","pd7te4rv8m5","smaller"," turtle","to see if we automatically process item size","no","<p>Correct!</p>","null","","","","","","",""
"","null","html-keyboard-response","405","2.0.0","331724","pd7te4rv8m5","smaller"," turtle","to see if we automatically process item size","no","<div style=""font-size:60px;"">+</div>","null","","","","","","",""
"","418","image-keyboard-response","406","2.0.0","332144","pd7te4rv8m5","smaller"," turtle","to see if we automatically process item size","no","stimuli/3-Congruent.jpg","m","","","","","right","m","true"
"","null","html-keyboard-response","407","2.0.0","333050","pd7te4rv8m5","smaller"," turtle","to see if we automatically process item size","no","<p>Correct!</p>","null","","","","","","",""
"","null","html-keyboard-response","408","2.0.0","334057","pd7te4rv8m5","smaller"," turtle","to see if we automatically process item size","no","<div style=""font-size:60px;"">+</div>","null","","","","","","",""
"","406","image-keyboard-response","409","2.0.0","334465","pd7te4rv8m5","smaller"," turtle","to see if we automatically process item size","no","stimuli/22-Congruent.jpg","m","","","","","right","m","true"
"","null","html-keyboard-response","410","2.0.0","335373","pd7te4rv8m5","smaller"," turtle","to see if we automatically process item size","no","<p>Correct!</p>","null","","","","","","",""
"","null","html-keyboard-response","411","2.0.0","336379","pd7te4rv8m5","smaller"," turtle","to see if we automatically process item size","no","<div style=""font-size:60px;"">+</div>","null","","","","","","",""
"","387","image-keyboard-response","412","2.0.0","336769","pd7te4rv8m5","smaller"," turtle","to see if we automatically process item size","no","stimuli/20-Congruent.jpg","m","","","","","right","m","true"
"","null","html-keyboard-response","413","2.0.0","337676","pd7te4rv8m5","smaller"," turtle","to see if we automatically process item size","no","<p>Correct!</p>","null","","","","","","",""
"","null","html-keyboard-response","414","2.0.0","338683","pd7te4rv8m5","smaller"," turtle","to see if we automatically process item size","no","<div style=""font-size:60px;"">+</div>","null","","","","","","",""
"","403","image-keyboard-response","415","2.0.0","339088","pd7te4rv8m5","smaller"," turtle","to see if we automatically process item size","no","stimuli/18-Inongruent.jpg","z","","","","","left","z","true"
"","null","html-keyboard-response","416","2.0.0","339991","pd7te4rv8m5","smaller"," turtle","to see if we automatically process item size","no","<p>Correct!</p>","null","","","","","","",""
"","null","html-keyboard-response","417","2.0.0","340996","pd7te4rv8m5","smaller"," turtle","to see if we automatically process item size","no","<div style=""font-size:60px;"">+</div>","null","","","","","","",""
"","370","image-keyboard-response","418","2.0.0","341368","pd7te4rv8m5","smaller"," turtle","to see if we automatically process item size","no","stimuli/33-Congruent.jpg","m","","","","","right","m","true"
"","null","html-keyboard-response","419","2.0.0","342275","pd7te4rv8m5","smaller"," turtle","to see if we automatically process item size","no","<p>Correct!</p>","null","","","","","","",""
"","null","html-keyboard-response","420","2.0.0","343282","pd7te4rv8m5","smaller"," turtle","to see if we automatically process item size","no","<div style=""font-size:60px;"">+</div>","null","","","","","","",""
"","523","image-keyboard-response","421","2.0.0","343807","pd7te4rv8m5","smaller"," turtle","to see if we automatically process item size","no","stimuli/17-Congruent.jpg","m","","","","","right","m","true"
"","null","html-keyboard-response","422","2.0.0","344714","pd7te4rv8m5","smaller"," turtle","to see if we automatically process item size","no","<p>Correct!</p>","null","","","","","","",""
"","null","html-keyboard-response","423","2.0.0","345719","pd7te4rv8m5","smaller"," turtle","to see if we automatically process item size","no","<div style=""font-size:60px;"">+</div>","null","","","","","","",""
"","439","image-keyboard-response","424","2.0.0","346160","pd7te4rv8m5","smaller"," turtle","to see if we automatically process item size","no","stimuli/15-Congruent.jpg","m","","","","","right","m","true"
"","null","html-keyboard-response","425","2.0.0","347065","pd7te4rv8m5","smaller"," turtle","to see if we automatically process item size","no","<p>Correct!</p>","null","","","","","","",""
"","null","html-keyboard-response","426","2.0.0","348070","pd7te4rv8m5","smaller"," turtle","to see if we automatically process item size","no","<div style=""font-size:60px;"">+</div>","null","","","","","","",""
"","361","image-keyboard-response","427","2.0.0","348432","pd7te4rv8m5","smaller"," turtle","to see if we automatically process item size","no","stimuli/13-Inongruent.jpg","z","","","","","left","z","true"
"","null","html-keyboard-response","428","2.0.0","349337","pd7te4rv8m5","smaller"," turtle","to see if we automatically process item size","no","<p>Correct!</p>","null","","","","","","",""
"","null","html-keyboard-response","429","2.0.0","350343","pd7te4rv8m5","smaller"," turtle","to see if we automatically process item size","no","<div style=""font-size:60px;"">+</div>","null","","","","","","",""
"","361","image-keyboard-response","430","2.0.0","350706","pd7te4rv8m5","smaller"," turtle","to see if we automatically process item size","no","stimuli/19-Inongruent.jpg","z","","","","","left","z","true"
"","null","html-keyboard-response","431","2.0.0","351612","pd7te4rv8m5","smaller"," turtle","to see if we automatically process item size","no","<p>Correct!</p>","null","","","","","","",""
"","null","html-keyboard-response","432","2.0.0","352617","pd7te4rv8m5","smaller"," turtle","to see if we automatically process item size","no","<div style=""font-size:60px;"">+</div>","null","","","","","","",""
"","420","image-keyboard-response","433","2.0.0","353039","pd7te4rv8m5","smaller"," turtle","to see if we automatically process item size","no","stimuli/27-Congruent.jpg","m","","","","","right","m","true"
"","null","html-keyboard-response","434","2.0.0","353946","pd7te4rv8m5","smaller"," turtle","to see if we automatically process item size","no","<p>Correct!</p>","null","","","","","","",""
"","null","html-keyboard-response","435","2.0.0","354953","pd7te4rv8m5","smaller"," turtle","to see if we automatically process item size","no","<div style=""font-size:60px;"">+</div>","null","","","","","","",""
"","353","image-keyboard-response","436","2.0.0","355308","pd7te4rv8m5","smaller"," turtle","to see if we automatically process item size","no","stimuli/19-Inongruent.jpg","z","","","","","left","z","true"
"","null","html-keyboard-response","437","2.0.0","356215","pd7te4rv8m5","smaller"," turtle","to see if we automatically process item size","no","<p>Correct!</p>","null","","","","","","",""
"","2590","html-keyboard-response","438","2.0.0","358807","pd7te4rv8m5","smaller"," turtle","to see if we automatically process item size","no","<p>You have completed the experiment!</p>
              <p>Your accuracy was: 99.30555555555556%.</p>
              <p>Thank you for participating.</p>
              <p>Press any key to continue.</p>"," ","","","","","","",""
"","21931","survey-text","439","2.0.0","380749","pd7te4rv8m5","smaller"," turtle","to see if we automatically process item size","no","","{""participant_thoughts"":""to see if we automatically process item size""}","","","","","","",""
"","2520","survey-text","440","2.0.0","383277","pd7te4rv8m5","smaller"," turtle","to see if we automatically process item size","no","","{""participant_difficulties"":""no""}","","","","","","",""
"","3753","html-keyboard-response","441","2.0.0","387031","pd7te4rv8m5","smaller"," turtle","to see if we automatically process item size","no","<p>The purpose of this experiment is to determine if the real world size of a familiar object is automatically processed when viewed.</p><p>Thank you for participating!</p>"," ","","","","","","",""
