"success","rt","trial_type","trial_index","plugin_version","time_elapsed","random_id","condition","participant","participant_thoughts","participant_difficulties","stimulus","response","timeout","failed_images","failed_audio","failed_video","correct_response","correct_response_key","correct"
"true","2086","fullscreen","0","null","3094","pdok71gr219","smaller","cricket","The effect of measuring smaller images when their sactual sizes are the opposite ( an example : an apple being shown as  the same size as an elephant) ","no","","","","","","","","",""
"","1833","html-keyboard-response","1","2.0.0","4929","pdok71gr219","smaller","cricket","The effect of measuring smaller images when their sactual sizes are the opposite ( an example : an apple being shown as  the same size as an elephant) ","no","Welcome to the Size Stroop experiment. Press any key to begin."," ","","","","","","",""
"","null","html-keyboard-response","2","2.0.0","5932","pdok71gr219","smaller","cricket","The effect of measuring smaller images when their sactual sizes are the opposite ( an example : an apple being shown as  the same size as an elephant) ","no","This trial will be in fullscreen mode.","null","","","","","","",""
"","4051","survey-text","3","2.0.0","9986","pdok71gr219","smaller","cricket","The effect of measuring smaller images when their sactual sizes are the opposite ( an example : an apple being shown as  the same size as an elephant) ","no","","{""participant_id"":""cricket""}","","","","","","",""
"","26100","html-keyboard-response","4","2.0.0","36087","pdok71gr219","smaller","cricket","The effect of measuring smaller images when their sactual sizes are the opposite ( an example : an apple being shown as  the same size as an elephant) ","no","<p>In this experiment, two images will appear on the screen. Identify the <strong>smaller</strong> image.</p>
              <p>If the image on the left is smaller, press ""z"". If the image on the right is smaller, press ""m"".</p>
              <p>Press any key to begin.</p>"," ","","","","","","",""
"true","","preload","5","2.0.0","36723","pdok71gr219","smaller","cricket","The effect of measuring smaller images when their sactual sizes are the opposite ( an example : an apple being shown as  the same size as an elephant) ","no","","","false","[]","[]","[]","","",""
"","null","html-keyboard-response","6","2.0.0","37725","pdok71gr219","smaller","cricket","The effect of measuring smaller images when their sactual sizes are the opposite ( an example : an apple being shown as  the same size as an elephant) ","no","<div style=""font-size:60px;"">+</div>","null","","","","","","",""
"","6539","image-keyboard-response","7","2.0.0","44278","pdok71gr219","smaller","cricket","The effect of measuring smaller images when their sactual sizes are the opposite ( an example : an apple being shown as  the same size as an elephant) ","no","stimuli/8-Congruent.jpg","z","","","","","right","m","false"
"","null","html-keyboard-response","8","2.0.0","49279","pdok71gr219","smaller","cricket","The effect of measuring smaller images when their sactual sizes are the opposite ( an example : an apple being shown as  the same size as an elephant) ","no","<p>Incorrect.</p><p>Remember to select the <b>smaller</b> image.</p><p>Continuing in 5 seconds...</p>","null","","","","","","",""
"","null","html-keyboard-response","9","2.0.0","50282","pdok71gr219","smaller","cricket","The effect of measuring smaller images when their sactual sizes are the opposite ( an example : an apple being shown as  the same size as an elephant) ","no","<div style=""font-size:60px;"">+</div>","null","","","","","","",""
"","1348","image-keyboard-response","10","2.0.0","51640","pdok71gr219","smaller","cricket","The effect of measuring smaller images when their sactual sizes are the opposite ( an example : an apple being shown as  the same size as an elephant) ","no","stimuli/21-Inongruent.jpg","z","","","","","left","z","true"
"","null","html-keyboard-response","11","2.0.0","52542","pdok71gr219","smaller","cricket","The effect of measuring smaller images when their sactual sizes are the opposite ( an example : an apple being shown as  the same size as an elephant) ","no","<p>Correct!</p>","null","","","","","","",""
"","null","html-keyboard-response","12","2.0.0","53543","pdok71gr219","smaller","cricket","The effect of measuring smaller images when their sactual sizes are the opposite ( an example : an apple being shown as  the same size as an elephant) ","no","<div style=""font-size:60px;"">+</div>","null","","","","","","",""
"","652","image-keyboard-response","13","2.0.0","54197","pdok71gr219","smaller","cricket","The effect of measuring smaller images when their sactual sizes are the opposite ( an example : an apple being shown as  the same size as an elephant) ","no","stimuli/20-Congruent.jpg","m","","","","","right","m","true"
"","null","html-keyboard-response","14","2.0.0","55098","pdok71gr219","smaller","cricket","The effect of measuring smaller images when their sactual sizes are the opposite ( an example : an apple being shown as  the same size as an elephant) ","no","<p>Correct!</p>","null","","","","","","",""
"","null","html-keyboard-response","15","2.0.0","56100","pdok71gr219","smaller","cricket","The effect of measuring smaller images when their sactual sizes are the opposite ( an example : an apple being shown as  the same size as an elephant) ","no","<div style=""font-size:60px;"">+</div>","null","","","","","","",""
"","1596","image-keyboard-response","16","2.0.0","57698","pdok71gr219","smaller","cricket","The effect of measuring smaller images when their sactual sizes are the opposite ( an example : an apple being shown as  the same size as an elephant) ","no","stimuli/25-Congruent.jpg","m","","","","","right","m","true"
"","null","html-keyboard-response","17","2.0.0","58599","pdok71gr219","smaller","cricket","The effect of measuring smaller images when their sactual sizes are the opposite ( an example : an apple being shown as  the same size as an elephant) ","no","<p>Correct!</p>","null","","","","","","",""
"","null","html-keyboard-response","18","2.0.0","59601","pdok71gr219","smaller","cricket","The effect of measuring smaller images when their sactual sizes are the opposite ( an example : an apple being shown as  the same size as an elephant) ","no","<div style=""font-size:60px;"">+</div>","null","","","","","","",""
"","706","image-keyboard-response","19","2.0.0","60309","pdok71gr219","smaller","cricket","The effect of measuring smaller images when their sactual sizes are the opposite ( an example : an apple being shown as  the same size as an elephant) ","no","stimuli/9-Congruent.jpg","m","","","","","right","m","true"
"","null","html-keyboard-response","20","2.0.0","61211","pdok71gr219","smaller","cricket","The effect of measuring smaller images when their sactual sizes are the opposite ( an example : an apple being shown as  the same size as an elephant) ","no","<p>Correct!</p>","null","","","","","","",""
"","null","html-keyboard-response","21","2.0.0","62213","pdok71gr219","smaller","cricket","The effect of measuring smaller images when their sactual sizes are the opposite ( an example : an apple being shown as  the same size as an elephant) ","no","<div style=""font-size:60px;"">+</div>","null","","","","","","",""
"","822","image-keyboard-response","22","2.0.0","63037","pdok71gr219","smaller","cricket","The effect of measuring smaller images when their sactual sizes are the opposite ( an example : an apple being shown as  the same size as an elephant) ","no","stimuli/23-Inongruent.jpg","z","","","","","left","z","true"
"","null","html-keyboard-response","23","2.0.0","63939","pdok71gr219","smaller","cricket","The effect of measuring smaller images when their sactual sizes are the opposite ( an example : an apple being shown as  the same size as an elephant) ","no","<p>Correct!</p>","null","","","","","","",""
"","null","html-keyboard-response","24","2.0.0","64940","pdok71gr219","smaller","cricket","The effect of measuring smaller images when their sactual sizes are the opposite ( an example : an apple being shown as  the same size as an elephant) ","no","<div style=""font-size:60px;"">+</div>","null","","","","","","",""
"","1225","image-keyboard-response","25","2.0.0","66167","pdok71gr219","smaller","cricket","The effect of measuring smaller images when their sactual sizes are the opposite ( an example : an apple being shown as  the same size as an elephant) ","no","stimuli/9-Inongruent.jpg","z","","","","","left","z","true"
"","null","html-keyboard-response","26","2.0.0","67070","pdok71gr219","smaller","cricket","The effect of measuring smaller images when their sactual sizes are the opposite ( an example : an apple being shown as  the same size as an elephant) ","no","<p>Correct!</p>","null","","","","","","",""
"","null","html-keyboard-response","27","2.0.0","68072","pdok71gr219","smaller","cricket","The effect of measuring smaller images when their sactual sizes are the opposite ( an example : an apple being shown as  the same size as an elephant) ","no","<div style=""font-size:60px;"">+</div>","null","","","","","","",""
"","684","image-keyboard-response","28","2.0.0","68757","pdok71gr219","smaller","cricket","The effect of measuring smaller images when their sactual sizes are the opposite ( an example : an apple being shown as  the same size as an elephant) ","no","stimuli/11-Inongruent.jpg","z","","","","","left","z","true"
"","null","html-keyboard-response","29","2.0.0","69659","pdok71gr219","smaller","cricket","The effect of measuring smaller images when their sactual sizes are the opposite ( an example : an apple being shown as  the same size as an elephant) ","no","<p>Correct!</p>","null","","","","","","",""
"","null","html-keyboard-response","30","2.0.0","70660","pdok71gr219","smaller","cricket","The effect of measuring smaller images when their sactual sizes are the opposite ( an example : an apple being shown as  the same size as an elephant) ","no","<div style=""font-size:60px;"">+</div>","null","","","","","","",""
"","2495","image-keyboard-response","31","2.0.0","73157","pdok71gr219","smaller","cricket","The effect of measuring smaller images when their sactual sizes are the opposite ( an example : an apple being shown as  the same size as an elephant) ","no","stimuli/17-Congruent.jpg","m","","","","","right","m","true"
"","null","html-keyboard-response","32","2.0.0","74059","pdok71gr219","smaller","cricket","The effect of measuring smaller images when their sactual sizes are the opposite ( an example : an apple being shown as  the same size as an elephant) ","no","<p>Correct!</p>","null","","","","","","",""
"","null","html-keyboard-response","33","2.0.0","75062","pdok71gr219","smaller","cricket","The effect of measuring smaller images when their sactual sizes are the opposite ( an example : an apple being shown as  the same size as an elephant) ","no","<div style=""font-size:60px;"">+</div>","null","","","","","","",""
"","509","image-keyboard-response","34","2.0.0","75572","pdok71gr219","smaller","cricket","The effect of measuring smaller images when their sactual sizes are the opposite ( an example : an apple being shown as  the same size as an elephant) ","no","stimuli/6-Inongruent.jpg","z","","","","","left","z","true"
"","null","html-keyboard-response","35","2.0.0","76473","pdok71gr219","smaller","cricket","The effect of measuring smaller images when their sactual sizes are the opposite ( an example : an apple being shown as  the same size as an elephant) ","no","<p>Correct!</p>","null","","","","","","",""
"","null","html-keyboard-response","36","2.0.0","77476","pdok71gr219","smaller","cricket","The effect of measuring smaller images when their sactual sizes are the opposite ( an example : an apple being shown as  the same size as an elephant) ","no","<div style=""font-size:60px;"">+</div>","null","","","","","","",""
"","1544","image-keyboard-response","37","2.0.0","79021","pdok71gr219","smaller","cricket","The effect of measuring smaller images when their sactual sizes are the opposite ( an example : an apple being shown as  the same size as an elephant) ","no","stimuli/6-Congruent.jpg","m","","","","","right","m","true"
"","null","html-keyboard-response","38","2.0.0","79923","pdok71gr219","smaller","cricket","The effect of measuring smaller images when their sactual sizes are the opposite ( an example : an apple being shown as  the same size as an elephant) ","no","<p>Correct!</p>","null","","","","","","",""
"","null","html-keyboard-response","39","2.0.0","80925","pdok71gr219","smaller","cricket","The effect of measuring smaller images when their sactual sizes are the opposite ( an example : an apple being shown as  the same size as an elephant) ","no","<div style=""font-size:60px;"">+</div>","null","","","","","","",""
"","1173","image-keyboard-response","40","2.0.0","82100","pdok71gr219","smaller","cricket","The effect of measuring smaller images when their sactual sizes are the opposite ( an example : an apple being shown as  the same size as an elephant) ","no","stimuli/30-Inongruent.jpg","z","","","","","left","z","true"
"","null","html-keyboard-response","41","2.0.0","83002","pdok71gr219","smaller","cricket","The effect of measuring smaller images when their sactual sizes are the opposite ( an example : an apple being shown as  the same size as an elephant) ","no","<p>Correct!</p>","null","","","","","","",""
"","null","html-keyboard-response","42","2.0.0","84004","pdok71gr219","smaller","cricket","The effect of measuring smaller images when their sactual sizes are the opposite ( an example : an apple being shown as  the same size as an elephant) ","no","<div style=""font-size:60px;"">+</div>","null","","","","","","",""
"","655","image-keyboard-response","43","2.0.0","84661","pdok71gr219","smaller","cricket","The effect of measuring smaller images when their sactual sizes are the opposite ( an example : an apple being shown as  the same size as an elephant) ","no","stimuli/12-Congruent.jpg","m","","","","","right","m","true"
"","null","html-keyboard-response","44","2.0.0","85562","pdok71gr219","smaller","cricket","The effect of measuring smaller images when their sactual sizes are the opposite ( an example : an apple being shown as  the same size as an elephant) ","no","<p>Correct!</p>","null","","","","","","",""
"","null","html-keyboard-response","45","2.0.0","86563","pdok71gr219","smaller","cricket","The effect of measuring smaller images when their sactual sizes are the opposite ( an example : an apple being shown as  the same size as an elephant) ","no","<div style=""font-size:60px;"">+</div>","null","","","","","","",""
"","626","image-keyboard-response","46","2.0.0","87191","pdok71gr219","smaller","cricket","The effect of measuring smaller images when their sactual sizes are the opposite ( an example : an apple being shown as  the same size as an elephant) ","no","stimuli/30-Congruent.jpg","m","","","","","right","m","true"
"","null","html-keyboard-response","47","2.0.0","88093","pdok71gr219","smaller","cricket","The effect of measuring smaller images when their sactual sizes are the opposite ( an example : an apple being shown as  the same size as an elephant) ","no","<p>Correct!</p>","null","","","","","","",""
"","null","html-keyboard-response","48","2.0.0","89096","pdok71gr219","smaller","cricket","The effect of measuring smaller images when their sactual sizes are the opposite ( an example : an apple being shown as  the same size as an elephant) ","no","<div style=""font-size:60px;"">+</div>","null","","","","","","",""
"","531","image-keyboard-response","49","2.0.0","89628","pdok71gr219","smaller","cricket","The effect of measuring smaller images when their sactual sizes are the opposite ( an example : an apple being shown as  the same size as an elephant) ","no","stimuli/25-Inongruent.jpg","z","","","","","left","z","true"
"","null","html-keyboard-response","50","2.0.0","90530","pdok71gr219","smaller","cricket","The effect of measuring smaller images when their sactual sizes are the opposite ( an example : an apple being shown as  the same size as an elephant) ","no","<p>Correct!</p>","null","","","","","","",""
"","null","html-keyboard-response","51","2.0.0","91533","pdok71gr219","smaller","cricket","The effect of measuring smaller images when their sactual sizes are the opposite ( an example : an apple being shown as  the same size as an elephant) ","no","<div style=""font-size:60px;"">+</div>","null","","","","","","",""
"","568","image-keyboard-response","52","2.0.0","92103","pdok71gr219","smaller","cricket","The effect of measuring smaller images when their sactual sizes are the opposite ( an example : an apple being shown as  the same size as an elephant) ","no","stimuli/28-Inongruent.jpg","z","","","","","left","z","true"
"","null","html-keyboard-response","53","2.0.0","93005","pdok71gr219","smaller","cricket","The effect of measuring smaller images when their sactual sizes are the opposite ( an example : an apple being shown as  the same size as an elephant) ","no","<p>Correct!</p>","null","","","","","","",""
"","null","html-keyboard-response","54","2.0.0","94006","pdok71gr219","smaller","cricket","The effect of measuring smaller images when their sactual sizes are the opposite ( an example : an apple being shown as  the same size as an elephant) ","no","<div style=""font-size:60px;"">+</div>","null","","","","","","",""
"","540","image-keyboard-response","55","2.0.0","94547","pdok71gr219","smaller","cricket","The effect of measuring smaller images when their sactual sizes are the opposite ( an example : an apple being shown as  the same size as an elephant) ","no","stimuli/1-Congruent.jpg","m","","","","","right","m","true"
"","null","html-keyboard-response","56","2.0.0","95449","pdok71gr219","smaller","cricket","The effect of measuring smaller images when their sactual sizes are the opposite ( an example : an apple being shown as  the same size as an elephant) ","no","<p>Correct!</p>","null","","","","","","",""
"","null","html-keyboard-response","57","2.0.0","96451","pdok71gr219","smaller","cricket","The effect of measuring smaller images when their sactual sizes are the opposite ( an example : an apple being shown as  the same size as an elephant) ","no","<div style=""font-size:60px;"">+</div>","null","","","","","","",""
"","498","image-keyboard-response","58","2.0.0","96950","pdok71gr219","smaller","cricket","The effect of measuring smaller images when their sactual sizes are the opposite ( an example : an apple being shown as  the same size as an elephant) ","no","stimuli/13-Congruent.jpg","m","","","","","right","m","true"
"","null","html-keyboard-response","59","2.0.0","97853","pdok71gr219","smaller","cricket","The effect of measuring smaller images when their sactual sizes are the opposite ( an example : an apple being shown as  the same size as an elephant) ","no","<p>Correct!</p>","null","","","","","","",""
"","null","html-keyboard-response","60","2.0.0","98854","pdok71gr219","smaller","cricket","The effect of measuring smaller images when their sactual sizes are the opposite ( an example : an apple being shown as  the same size as an elephant) ","no","<div style=""font-size:60px;"">+</div>","null","","","","","","",""
"","348","image-keyboard-response","61","2.0.0","99203","pdok71gr219","smaller","cricket","The effect of measuring smaller images when their sactual sizes are the opposite ( an example : an apple being shown as  the same size as an elephant) ","no","stimuli/15-Inongruent.jpg","z","","","","","left","z","true"
"","null","html-keyboard-response","62","2.0.0","100105","pdok71gr219","smaller","cricket","The effect of measuring smaller images when their sactual sizes are the opposite ( an example : an apple being shown as  the same size as an elephant) ","no","<p>Correct!</p>","null","","","","","","",""
"","null","html-keyboard-response","63","2.0.0","101107","pdok71gr219","smaller","cricket","The effect of measuring smaller images when their sactual sizes are the opposite ( an example : an apple being shown as  the same size as an elephant) ","no","<div style=""font-size:60px;"">+</div>","null","","","","","","",""
"","546","image-keyboard-response","64","2.0.0","101655","pdok71gr219","smaller","cricket","The effect of measuring smaller images when their sactual sizes are the opposite ( an example : an apple being shown as  the same size as an elephant) ","no","stimuli/26-Inongruent.jpg","z","","","","","left","z","true"
"","null","html-keyboard-response","65","2.0.0","102557","pdok71gr219","smaller","cricket","The effect of measuring smaller images when their sactual sizes are the opposite ( an example : an apple being shown as  the same size as an elephant) ","no","<p>Correct!</p>","null","","","","","","",""
"","null","html-keyboard-response","66","2.0.0","103560","pdok71gr219","smaller","cricket","The effect of measuring smaller images when their sactual sizes are the opposite ( an example : an apple being shown as  the same size as an elephant) ","no","<div style=""font-size:60px;"">+</div>","null","","","","","","",""
"","459","image-keyboard-response","67","2.0.0","104020","pdok71gr219","smaller","cricket","The effect of measuring smaller images when their sactual sizes are the opposite ( an example : an apple being shown as  the same size as an elephant) ","no","stimuli/10-Inongruent.jpg","z","","","","","left","z","true"
"","null","html-keyboard-response","68","2.0.0","104922","pdok71gr219","smaller","cricket","The effect of measuring smaller images when their sactual sizes are the opposite ( an example : an apple being shown as  the same size as an elephant) ","no","<p>Correct!</p>","null","","","","","","",""
"","null","html-keyboard-response","69","2.0.0","105925","pdok71gr219","smaller","cricket","The effect of measuring smaller images when their sactual sizes are the opposite ( an example : an apple being shown as  the same size as an elephant) ","no","<div style=""font-size:60px;"">+</div>","null","","","","","","",""
"","376","image-keyboard-response","70","2.0.0","106303","pdok71gr219","smaller","cricket","The effect of measuring smaller images when their sactual sizes are the opposite ( an example : an apple being shown as  the same size as an elephant) ","no","stimuli/35-Inongruent.jpg","z","","","","","left","z","true"
"","null","html-keyboard-response","71","2.0.0","107204","pdok71gr219","smaller","cricket","The effect of measuring smaller images when their sactual sizes are the opposite ( an example : an apple being shown as  the same size as an elephant) ","no","<p>Correct!</p>","null","","","","","","",""
"","null","html-keyboard-response","72","2.0.0","108206","pdok71gr219","smaller","cricket","The effect of measuring smaller images when their sactual sizes are the opposite ( an example : an apple being shown as  the same size as an elephant) ","no","<div style=""font-size:60px;"">+</div>","null","","","","","","",""
"","462","image-keyboard-response","73","2.0.0","108669","pdok71gr219","smaller","cricket","The effect of measuring smaller images when their sactual sizes are the opposite ( an example : an apple being shown as  the same size as an elephant) ","no","stimuli/33-Inongruent.jpg","z","","","","","left","z","true"
"","null","html-keyboard-response","74","2.0.0","109570","pdok71gr219","smaller","cricket","The effect of measuring smaller images when their sactual sizes are the opposite ( an example : an apple being shown as  the same size as an elephant) ","no","<p>Correct!</p>","null","","","","","","",""
"","null","html-keyboard-response","75","2.0.0","110572","pdok71gr219","smaller","cricket","The effect of measuring smaller images when their sactual sizes are the opposite ( an example : an apple being shown as  the same size as an elephant) ","no","<div style=""font-size:60px;"">+</div>","null","","","","","","",""
"","417","image-keyboard-response","76","2.0.0","110991","pdok71gr219","smaller","cricket","The effect of measuring smaller images when their sactual sizes are the opposite ( an example : an apple being shown as  the same size as an elephant) ","no","stimuli/1-Inongruent.jpg","z","","","","","left","z","true"
"","null","html-keyboard-response","77","2.0.0","111893","pdok71gr219","smaller","cricket","The effect of measuring smaller images when their sactual sizes are the opposite ( an example : an apple being shown as  the same size as an elephant) ","no","<p>Correct!</p>","null","","","","","","",""
"","null","html-keyboard-response","78","2.0.0","112895","pdok71gr219","smaller","cricket","The effect of measuring smaller images when their sactual sizes are the opposite ( an example : an apple being shown as  the same size as an elephant) ","no","<div style=""font-size:60px;"">+</div>","null","","","","","","",""
"","547","image-keyboard-response","79","2.0.0","113444","pdok71gr219","smaller","cricket","The effect of measuring smaller images when their sactual sizes are the opposite ( an example : an apple being shown as  the same size as an elephant) ","no","stimuli/12-Congruent.jpg","m","","","","","right","m","true"
"","null","html-keyboard-response","80","2.0.0","114346","pdok71gr219","smaller","cricket","The effect of measuring smaller images when their sactual sizes are the opposite ( an example : an apple being shown as  the same size as an elephant) ","no","<p>Correct!</p>","null","","","","","","",""
"","null","html-keyboard-response","81","2.0.0","115348","pdok71gr219","smaller","cricket","The effect of measuring smaller images when their sactual sizes are the opposite ( an example : an apple being shown as  the same size as an elephant) ","no","<div style=""font-size:60px;"">+</div>","null","","","","","","",""
"","390","image-keyboard-response","82","2.0.0","115739","pdok71gr219","smaller","cricket","The effect of measuring smaller images when their sactual sizes are the opposite ( an example : an apple being shown as  the same size as an elephant) ","no","stimuli/14-Inongruent.jpg","z","","","","","left","z","true"
"","null","html-keyboard-response","83","2.0.0","116642","pdok71gr219","smaller","cricket","The effect of measuring smaller images when their sactual sizes are the opposite ( an example : an apple being shown as  the same size as an elephant) ","no","<p>Correct!</p>","null","","","","","","",""
"","null","html-keyboard-response","84","2.0.0","117644","pdok71gr219","smaller","cricket","The effect of measuring smaller images when their sactual sizes are the opposite ( an example : an apple being shown as  the same size as an elephant) ","no","<div style=""font-size:60px;"">+</div>","null","","","","","","",""
"","409","image-keyboard-response","85","2.0.0","118055","pdok71gr219","smaller","cricket","The effect of measuring smaller images when their sactual sizes are the opposite ( an example : an apple being shown as  the same size as an elephant) ","no","stimuli/24-Inongruent.jpg","z","","","","","left","z","true"
"","null","html-keyboard-response","86","2.0.0","118958","pdok71gr219","smaller","cricket","The effect of measuring smaller images when their sactual sizes are the opposite ( an example : an apple being shown as  the same size as an elephant) ","no","<p>Correct!</p>","null","","","","","","",""
"","null","html-keyboard-response","87","2.0.0","119960","pdok71gr219","smaller","cricket","The effect of measuring smaller images when their sactual sizes are the opposite ( an example : an apple being shown as  the same size as an elephant) ","no","<div style=""font-size:60px;"">+</div>","null","","","","","","",""
"","891","image-keyboard-response","88","2.0.0","120852","pdok71gr219","smaller","cricket","The effect of measuring smaller images when their sactual sizes are the opposite ( an example : an apple being shown as  the same size as an elephant) ","no","stimuli/36-Congruent.jpg","m","","","","","right","m","true"
"","null","html-keyboard-response","89","2.0.0","121753","pdok71gr219","smaller","cricket","The effect of measuring smaller images when their sactual sizes are the opposite ( an example : an apple being shown as  the same size as an elephant) ","no","<p>Correct!</p>","null","","","","","","",""
"","null","html-keyboard-response","90","2.0.0","122755","pdok71gr219","smaller","cricket","The effect of measuring smaller images when their sactual sizes are the opposite ( an example : an apple being shown as  the same size as an elephant) ","no","<div style=""font-size:60px;"">+</div>","null","","","","","","",""
"","432","image-keyboard-response","91","2.0.0","123187","pdok71gr219","smaller","cricket","The effect of measuring smaller images when their sactual sizes are the opposite ( an example : an apple being shown as  the same size as an elephant) ","no","stimuli/13-Inongruent.jpg","z","","","","","left","z","true"
"","null","html-keyboard-response","92","2.0.0","124090","pdok71gr219","smaller","cricket","The effect of measuring smaller images when their sactual sizes are the opposite ( an example : an apple being shown as  the same size as an elephant) ","no","<p>Correct!</p>","null","","","","","","",""
"","null","html-keyboard-response","93","2.0.0","125091","pdok71gr219","smaller","cricket","The effect of measuring smaller images when their sactual sizes are the opposite ( an example : an apple being shown as  the same size as an elephant) ","no","<div style=""font-size:60px;"">+</div>","null","","","","","","",""
"","458","image-keyboard-response","94","2.0.0","125550","pdok71gr219","smaller","cricket","The effect of measuring smaller images when their sactual sizes are the opposite ( an example : an apple being shown as  the same size as an elephant) ","no","stimuli/34-Inongruent.jpg","z","","","","","left","z","true"
"","null","html-keyboard-response","95","2.0.0","126452","pdok71gr219","smaller","cricket","The effect of measuring smaller images when their sactual sizes are the opposite ( an example : an apple being shown as  the same size as an elephant) ","no","<p>Correct!</p>","null","","","","","","",""
"","null","html-keyboard-response","96","2.0.0","127454","pdok71gr219","smaller","cricket","The effect of measuring smaller images when their sactual sizes are the opposite ( an example : an apple being shown as  the same size as an elephant) ","no","<div style=""font-size:60px;"">+</div>","null","","","","","","",""
"","556","image-keyboard-response","97","2.0.0","128011","pdok71gr219","smaller","cricket","The effect of measuring smaller images when their sactual sizes are the opposite ( an example : an apple being shown as  the same size as an elephant) ","no","stimuli/18-Inongruent.jpg","z","","","","","left","z","true"
"","null","html-keyboard-response","98","2.0.0","128912","pdok71gr219","smaller","cricket","The effect of measuring smaller images when their sactual sizes are the opposite ( an example : an apple being shown as  the same size as an elephant) ","no","<p>Correct!</p>","null","","","","","","",""
"","null","html-keyboard-response","99","2.0.0","129914","pdok71gr219","smaller","cricket","The effect of measuring smaller images when their sactual sizes are the opposite ( an example : an apple being shown as  the same size as an elephant) ","no","<div style=""font-size:60px;"">+</div>","null","","","","","","",""
"","504","image-keyboard-response","100","2.0.0","130419","pdok71gr219","smaller","cricket","The effect of measuring smaller images when their sactual sizes are the opposite ( an example : an apple being shown as  the same size as an elephant) ","no","stimuli/22-Congruent.jpg","m","","","","","right","m","true"
"","null","html-keyboard-response","101","2.0.0","131322","pdok71gr219","smaller","cricket","The effect of measuring smaller images when their sactual sizes are the opposite ( an example : an apple being shown as  the same size as an elephant) ","no","<p>Correct!</p>","null","","","","","","",""
"","null","html-keyboard-response","102","2.0.0","132325","pdok71gr219","smaller","cricket","The effect of measuring smaller images when their sactual sizes are the opposite ( an example : an apple being shown as  the same size as an elephant) ","no","<div style=""font-size:60px;"">+</div>","null","","","","","","",""
"","568","image-keyboard-response","103","2.0.0","132894","pdok71gr219","smaller","cricket","The effect of measuring smaller images when their sactual sizes are the opposite ( an example : an apple being shown as  the same size as an elephant) ","no","stimuli/4-Congruent.jpg","m","","","","","right","m","true"
"","null","html-keyboard-response","104","2.0.0","133795","pdok71gr219","smaller","cricket","The effect of measuring smaller images when their sactual sizes are the opposite ( an example : an apple being shown as  the same size as an elephant) ","no","<p>Correct!</p>","null","","","","","","",""
"","null","html-keyboard-response","105","2.0.0","134797","pdok71gr219","smaller","cricket","The effect of measuring smaller images when their sactual sizes are the opposite ( an example : an apple being shown as  the same size as an elephant) ","no","<div style=""font-size:60px;"">+</div>","null","","","","","","",""
"","357","image-keyboard-response","106","2.0.0","135155","pdok71gr219","smaller","cricket","The effect of measuring smaller images when their sactual sizes are the opposite ( an example : an apple being shown as  the same size as an elephant) ","no","stimuli/5-Inongruent.jpg","z","","","","","left","z","true"
"","null","html-keyboard-response","107","2.0.0","136058","pdok71gr219","smaller","cricket","The effect of measuring smaller images when their sactual sizes are the opposite ( an example : an apple being shown as  the same size as an elephant) ","no","<p>Correct!</p>","null","","","","","","",""
"","null","html-keyboard-response","108","2.0.0","137061","pdok71gr219","smaller","cricket","The effect of measuring smaller images when their sactual sizes are the opposite ( an example : an apple being shown as  the same size as an elephant) ","no","<div style=""font-size:60px;"">+</div>","null","","","","","","",""
"","359","image-keyboard-response","109","2.0.0","137421","pdok71gr219","smaller","cricket","The effect of measuring smaller images when their sactual sizes are the opposite ( an example : an apple being shown as  the same size as an elephant) ","no","stimuli/1-Inongruent.jpg","z","","","","","left","z","true"
"","null","html-keyboard-response","110","2.0.0","138324","pdok71gr219","smaller","cricket","The effect of measuring smaller images when their sactual sizes are the opposite ( an example : an apple being shown as  the same size as an elephant) ","no","<p>Correct!</p>","null","","","","","","",""
"","null","html-keyboard-response","111","2.0.0","139326","pdok71gr219","smaller","cricket","The effect of measuring smaller images when their sactual sizes are the opposite ( an example : an apple being shown as  the same size as an elephant) ","no","<div style=""font-size:60px;"">+</div>","null","","","","","","",""
"","347","image-keyboard-response","112","2.0.0","139675","pdok71gr219","smaller","cricket","The effect of measuring smaller images when their sactual sizes are the opposite ( an example : an apple being shown as  the same size as an elephant) ","no","stimuli/26-Inongruent.jpg","z","","","","","left","z","true"
"","null","html-keyboard-response","113","2.0.0","140577","pdok71gr219","smaller","cricket","The effect of measuring smaller images when their sactual sizes are the opposite ( an example : an apple being shown as  the same size as an elephant) ","no","<p>Correct!</p>","null","","","","","","",""
"","null","html-keyboard-response","114","2.0.0","141579","pdok71gr219","smaller","cricket","The effect of measuring smaller images when their sactual sizes are the opposite ( an example : an apple being shown as  the same size as an elephant) ","no","<div style=""font-size:60px;"">+</div>","null","","","","","","",""
"","345","image-keyboard-response","115","2.0.0","141925","pdok71gr219","smaller","cricket","The effect of measuring smaller images when their sactual sizes are the opposite ( an example : an apple being shown as  the same size as an elephant) ","no","stimuli/23-Congruent.jpg","z","","","","","right","m","false"
"","null","html-keyboard-response","116","2.0.0","146928","pdok71gr219","smaller","cricket","The effect of measuring smaller images when their sactual sizes are the opposite ( an example : an apple being shown as  the same size as an elephant) ","no","<p>Incorrect.</p><p>Remember to select the <b>smaller</b> image.</p><p>Continuing in 5 seconds...</p>","null","","","","","","",""
"","null","html-keyboard-response","117","2.0.0","147930","pdok71gr219","smaller","cricket","The effect of measuring smaller images when their sactual sizes are the opposite ( an example : an apple being shown as  the same size as an elephant) ","no","<div style=""font-size:60px;"">+</div>","null","","","","","","",""
"","512","image-keyboard-response","118","2.0.0","148444","pdok71gr219","smaller","cricket","The effect of measuring smaller images when their sactual sizes are the opposite ( an example : an apple being shown as  the same size as an elephant) ","no","stimuli/17-Inongruent.jpg","z","","","","","left","z","true"
"","null","html-keyboard-response","119","2.0.0","149345","pdok71gr219","smaller","cricket","The effect of measuring smaller images when their sactual sizes are the opposite ( an example : an apple being shown as  the same size as an elephant) ","no","<p>Correct!</p>","null","","","","","","",""
"","null","html-keyboard-response","120","2.0.0","150348","pdok71gr219","smaller","cricket","The effect of measuring smaller images when their sactual sizes are the opposite ( an example : an apple being shown as  the same size as an elephant) ","no","<div style=""font-size:60px;"">+</div>","null","","","","","","",""
"","462","image-keyboard-response","121","2.0.0","150811","pdok71gr219","smaller","cricket","The effect of measuring smaller images when their sactual sizes are the opposite ( an example : an apple being shown as  the same size as an elephant) ","no","stimuli/32-Congruent.jpg","m","","","","","right","m","true"
"","null","html-keyboard-response","122","2.0.0","151712","pdok71gr219","smaller","cricket","The effect of measuring smaller images when their sactual sizes are the opposite ( an example : an apple being shown as  the same size as an elephant) ","no","<p>Correct!</p>","null","","","","","","",""
"","null","html-keyboard-response","123","2.0.0","152714","pdok71gr219","smaller","cricket","The effect of measuring smaller images when their sactual sizes are the opposite ( an example : an apple being shown as  the same size as an elephant) ","no","<div style=""font-size:60px;"">+</div>","null","","","","","","",""
"","497","image-keyboard-response","124","2.0.0","153212","pdok71gr219","smaller","cricket","The effect of measuring smaller images when their sactual sizes are the opposite ( an example : an apple being shown as  the same size as an elephant) ","no","stimuli/29-Congruent.jpg","m","","","","","right","m","true"
"","null","html-keyboard-response","125","2.0.0","154115","pdok71gr219","smaller","cricket","The effect of measuring smaller images when their sactual sizes are the opposite ( an example : an apple being shown as  the same size as an elephant) ","no","<p>Correct!</p>","null","","","","","","",""
"","null","html-keyboard-response","126","2.0.0","155118","pdok71gr219","smaller","cricket","The effect of measuring smaller images when their sactual sizes are the opposite ( an example : an apple being shown as  the same size as an elephant) ","no","<div style=""font-size:60px;"">+</div>","null","","","","","","",""
"","428","image-keyboard-response","127","2.0.0","155547","pdok71gr219","smaller","cricket","The effect of measuring smaller images when their sactual sizes are the opposite ( an example : an apple being shown as  the same size as an elephant) ","no","stimuli/4-Inongruent.jpg","z","","","","","left","z","true"
"","null","html-keyboard-response","128","2.0.0","156449","pdok71gr219","smaller","cricket","The effect of measuring smaller images when their sactual sizes are the opposite ( an example : an apple being shown as  the same size as an elephant) ","no","<p>Correct!</p>","null","","","","","","",""
"","null","html-keyboard-response","129","2.0.0","157452","pdok71gr219","smaller","cricket","The effect of measuring smaller images when their sactual sizes are the opposite ( an example : an apple being shown as  the same size as an elephant) ","no","<div style=""font-size:60px;"">+</div>","null","","","","","","",""
"","524","image-keyboard-response","130","2.0.0","157978","pdok71gr219","smaller","cricket","The effect of measuring smaller images when their sactual sizes are the opposite ( an example : an apple being shown as  the same size as an elephant) ","no","stimuli/16-Congruent.jpg","m","","","","","right","m","true"
"","null","html-keyboard-response","131","2.0.0","158880","pdok71gr219","smaller","cricket","The effect of measuring smaller images when their sactual sizes are the opposite ( an example : an apple being shown as  the same size as an elephant) ","no","<p>Correct!</p>","null","","","","","","",""
"","null","html-keyboard-response","132","2.0.0","159883","pdok71gr219","smaller","cricket","The effect of measuring smaller images when their sactual sizes are the opposite ( an example : an apple being shown as  the same size as an elephant) ","no","<div style=""font-size:60px;"">+</div>","null","","","","","","",""
"","529","image-keyboard-response","133","2.0.0","160413","pdok71gr219","smaller","cricket","The effect of measuring smaller images when their sactual sizes are the opposite ( an example : an apple being shown as  the same size as an elephant) ","no","stimuli/24-Congruent.jpg","m","","","","","right","m","true"
"","null","html-keyboard-response","134","2.0.0","161315","pdok71gr219","smaller","cricket","The effect of measuring smaller images when their sactual sizes are the opposite ( an example : an apple being shown as  the same size as an elephant) ","no","<p>Correct!</p>","null","","","","","","",""
"","null","html-keyboard-response","135","2.0.0","162318","pdok71gr219","smaller","cricket","The effect of measuring smaller images when their sactual sizes are the opposite ( an example : an apple being shown as  the same size as an elephant) ","no","<div style=""font-size:60px;"">+</div>","null","","","","","","",""
"","436","image-keyboard-response","136","2.0.0","162755","pdok71gr219","smaller","cricket","The effect of measuring smaller images when their sactual sizes are the opposite ( an example : an apple being shown as  the same size as an elephant) ","no","stimuli/34-Inongruent.jpg","z","","","","","left","z","true"
"","null","html-keyboard-response","137","2.0.0","163656","pdok71gr219","smaller","cricket","The effect of measuring smaller images when their sactual sizes are the opposite ( an example : an apple being shown as  the same size as an elephant) ","no","<p>Correct!</p>","null","","","","","","",""
"","null","html-keyboard-response","138","2.0.0","164658","pdok71gr219","smaller","cricket","The effect of measuring smaller images when their sactual sizes are the opposite ( an example : an apple being shown as  the same size as an elephant) ","no","<div style=""font-size:60px;"">+</div>","null","","","","","","",""
"","479","image-keyboard-response","139","2.0.0","165138","pdok71gr219","smaller","cricket","The effect of measuring smaller images when their sactual sizes are the opposite ( an example : an apple being shown as  the same size as an elephant) ","no","stimuli/33-Congruent.jpg","m","","","","","right","m","true"
"","null","html-keyboard-response","140","2.0.0","166040","pdok71gr219","smaller","cricket","The effect of measuring smaller images when their sactual sizes are the opposite ( an example : an apple being shown as  the same size as an elephant) ","no","<p>Correct!</p>","null","","","","","","",""
"","null","html-keyboard-response","141","2.0.0","167042","pdok71gr219","smaller","cricket","The effect of measuring smaller images when their sactual sizes are the opposite ( an example : an apple being shown as  the same size as an elephant) ","no","<div style=""font-size:60px;"">+</div>","null","","","","","","",""
"","611","image-keyboard-response","142","2.0.0","167654","pdok71gr219","smaller","cricket","The effect of measuring smaller images when their sactual sizes are the opposite ( an example : an apple being shown as  the same size as an elephant) ","no","stimuli/3-Congruent.jpg","m","","","","","right","m","true"
"","null","html-keyboard-response","143","2.0.0","168556","pdok71gr219","smaller","cricket","The effect of measuring smaller images when their sactual sizes are the opposite ( an example : an apple being shown as  the same size as an elephant) ","no","<p>Correct!</p>","null","","","","","","",""
"","null","html-keyboard-response","144","2.0.0","169557","pdok71gr219","smaller","cricket","The effect of measuring smaller images when their sactual sizes are the opposite ( an example : an apple being shown as  the same size as an elephant) ","no","<div style=""font-size:60px;"">+</div>","null","","","","","","",""
"","435","image-keyboard-response","145","2.0.0","169994","pdok71gr219","smaller","cricket","The effect of measuring smaller images when their sactual sizes are the opposite ( an example : an apple being shown as  the same size as an elephant) ","no","stimuli/29-Inongruent.jpg","z","","","","","left","z","true"
"","null","html-keyboard-response","146","2.0.0","170896","pdok71gr219","smaller","cricket","The effect of measuring smaller images when their sactual sizes are the opposite ( an example : an apple being shown as  the same size as an elephant) ","no","<p>Correct!</p>","null","","","","","","",""
"","null","html-keyboard-response","147","2.0.0","171899","pdok71gr219","smaller","cricket","The effect of measuring smaller images when their sactual sizes are the opposite ( an example : an apple being shown as  the same size as an elephant) ","no","<div style=""font-size:60px;"">+</div>","null","","","","","","",""
"","631","image-keyboard-response","148","2.0.0","172531","pdok71gr219","smaller","cricket","The effect of measuring smaller images when their sactual sizes are the opposite ( an example : an apple being shown as  the same size as an elephant) ","no","stimuli/23-Congruent.jpg","m","","","","","right","m","true"
"","null","html-keyboard-response","149","2.0.0","173433","pdok71gr219","smaller","cricket","The effect of measuring smaller images when their sactual sizes are the opposite ( an example : an apple being shown as  the same size as an elephant) ","no","<p>Correct!</p>","null","","","","","","",""
"","null","html-keyboard-response","150","2.0.0","174435","pdok71gr219","smaller","cricket","The effect of measuring smaller images when their sactual sizes are the opposite ( an example : an apple being shown as  the same size as an elephant) ","no","<div style=""font-size:60px;"">+</div>","null","","","","","","",""
"","774","image-keyboard-response","151","2.0.0","175211","pdok71gr219","smaller","cricket","The effect of measuring smaller images when their sactual sizes are the opposite ( an example : an apple being shown as  the same size as an elephant) ","no","stimuli/19-Inongruent.jpg","z","","","","","left","z","true"
"","null","html-keyboard-response","152","2.0.0","176112","pdok71gr219","smaller","cricket","The effect of measuring smaller images when their sactual sizes are the opposite ( an example : an apple being shown as  the same size as an elephant) ","no","<p>Correct!</p>","null","","","","","","",""
"","null","html-keyboard-response","153","2.0.0","177113","pdok71gr219","smaller","cricket","The effect of measuring smaller images when their sactual sizes are the opposite ( an example : an apple being shown as  the same size as an elephant) ","no","<div style=""font-size:60px;"">+</div>","null","","","","","","",""
"","439","image-keyboard-response","154","2.0.0","177554","pdok71gr219","smaller","cricket","The effect of measuring smaller images when their sactual sizes are the opposite ( an example : an apple being shown as  the same size as an elephant) ","no","stimuli/14-Congruent.jpg","m","","","","","right","m","true"
"","null","html-keyboard-response","155","2.0.0","178455","pdok71gr219","smaller","cricket","The effect of measuring smaller images when their sactual sizes are the opposite ( an example : an apple being shown as  the same size as an elephant) ","no","<p>Correct!</p>","null","","","","","","",""
"","null","html-keyboard-response","156","2.0.0","179457","pdok71gr219","smaller","cricket","The effect of measuring smaller images when their sactual sizes are the opposite ( an example : an apple being shown as  the same size as an elephant) ","no","<div style=""font-size:60px;"">+</div>","null","","","","","","",""
"","562","image-keyboard-response","157","2.0.0","180020","pdok71gr219","smaller","cricket","The effect of measuring smaller images when their sactual sizes are the opposite ( an example : an apple being shown as  the same size as an elephant) ","no","stimuli/34-Congruent.jpg","m","","","","","right","m","true"
"","null","html-keyboard-response","158","2.0.0","180921","pdok71gr219","smaller","cricket","The effect of measuring smaller images when their sactual sizes are the opposite ( an example : an apple being shown as  the same size as an elephant) ","no","<p>Correct!</p>","null","","","","","","",""
"","null","html-keyboard-response","159","2.0.0","181923","pdok71gr219","smaller","cricket","The effect of measuring smaller images when their sactual sizes are the opposite ( an example : an apple being shown as  the same size as an elephant) ","no","<div style=""font-size:60px;"">+</div>","null","","","","","","",""
"","502","image-keyboard-response","160","2.0.0","182426","pdok71gr219","smaller","cricket","The effect of measuring smaller images when their sactual sizes are the opposite ( an example : an apple being shown as  the same size as an elephant) ","no","stimuli/28-Congruent.jpg","m","","","","","right","m","true"
"","null","html-keyboard-response","161","2.0.0","183328","pdok71gr219","smaller","cricket","The effect of measuring smaller images when their sactual sizes are the opposite ( an example : an apple being shown as  the same size as an elephant) ","no","<p>Correct!</p>","null","","","","","","",""
"","null","html-keyboard-response","162","2.0.0","184331","pdok71gr219","smaller","cricket","The effect of measuring smaller images when their sactual sizes are the opposite ( an example : an apple being shown as  the same size as an elephant) ","no","<div style=""font-size:60px;"">+</div>","null","","","","","","",""
"","521","image-keyboard-response","163","2.0.0","184853","pdok71gr219","smaller","cricket","The effect of measuring smaller images when their sactual sizes are the opposite ( an example : an apple being shown as  the same size as an elephant) ","no","stimuli/35-Congruent.jpg","m","","","","","right","m","true"
"","null","html-keyboard-response","164","2.0.0","185756","pdok71gr219","smaller","cricket","The effect of measuring smaller images when their sactual sizes are the opposite ( an example : an apple being shown as  the same size as an elephant) ","no","<p>Correct!</p>","null","","","","","","",""
"","null","html-keyboard-response","165","2.0.0","186759","pdok71gr219","smaller","cricket","The effect of measuring smaller images when their sactual sizes are the opposite ( an example : an apple being shown as  the same size as an elephant) ","no","<div style=""font-size:60px;"">+</div>","null","","","","","","",""
"","442","image-keyboard-response","166","2.0.0","187203","pdok71gr219","smaller","cricket","The effect of measuring smaller images when their sactual sizes are the opposite ( an example : an apple being shown as  the same size as an elephant) ","no","stimuli/18-Congruent.jpg","m","","","","","right","m","true"
"","null","html-keyboard-response","167","2.0.0","188105","pdok71gr219","smaller","cricket","The effect of measuring smaller images when their sactual sizes are the opposite ( an example : an apple being shown as  the same size as an elephant) ","no","<p>Correct!</p>","null","","","","","","",""
"","null","html-keyboard-response","168","2.0.0","189107","pdok71gr219","smaller","cricket","The effect of measuring smaller images when their sactual sizes are the opposite ( an example : an apple being shown as  the same size as an elephant) ","no","<div style=""font-size:60px;"">+</div>","null","","","","","","",""
"","400","image-keyboard-response","169","2.0.0","189508","pdok71gr219","smaller","cricket","The effect of measuring smaller images when their sactual sizes are the opposite ( an example : an apple being shown as  the same size as an elephant) ","no","stimuli/27-Congruent.jpg","m","","","","","right","m","true"
"","null","html-keyboard-response","170","2.0.0","190411","pdok71gr219","smaller","cricket","The effect of measuring smaller images when their sactual sizes are the opposite ( an example : an apple being shown as  the same size as an elephant) ","no","<p>Correct!</p>","null","","","","","","",""
"","null","html-keyboard-response","171","2.0.0","191414","pdok71gr219","smaller","cricket","The effect of measuring smaller images when their sactual sizes are the opposite ( an example : an apple being shown as  the same size as an elephant) ","no","<div style=""font-size:60px;"">+</div>","null","","","","","","",""
"","571","image-keyboard-response","172","2.0.0","191986","pdok71gr219","smaller","cricket","The effect of measuring smaller images when their sactual sizes are the opposite ( an example : an apple being shown as  the same size as an elephant) ","no","stimuli/8-Inongruent.jpg","z","","","","","left","z","true"
"","null","html-keyboard-response","173","2.0.0","192889","pdok71gr219","smaller","cricket","The effect of measuring smaller images when their sactual sizes are the opposite ( an example : an apple being shown as  the same size as an elephant) ","no","<p>Correct!</p>","null","","","","","","",""
"","null","html-keyboard-response","174","2.0.0","193891","pdok71gr219","smaller","cricket","The effect of measuring smaller images when their sactual sizes are the opposite ( an example : an apple being shown as  the same size as an elephant) ","no","<div style=""font-size:60px;"">+</div>","null","","","","","","",""
"","453","image-keyboard-response","175","2.0.0","194346","pdok71gr219","smaller","cricket","The effect of measuring smaller images when their sactual sizes are the opposite ( an example : an apple being shown as  the same size as an elephant) ","no","stimuli/15-Congruent.jpg","m","","","","","right","m","true"
"","null","html-keyboard-response","176","2.0.0","195248","pdok71gr219","smaller","cricket","The effect of measuring smaller images when their sactual sizes are the opposite ( an example : an apple being shown as  the same size as an elephant) ","no","<p>Correct!</p>","null","","","","","","",""
"","null","html-keyboard-response","177","2.0.0","196250","pdok71gr219","smaller","cricket","The effect of measuring smaller images when their sactual sizes are the opposite ( an example : an apple being shown as  the same size as an elephant) ","no","<div style=""font-size:60px;"">+</div>","null","","","","","","",""
"","495","image-keyboard-response","178","2.0.0","196747","pdok71gr219","smaller","cricket","The effect of measuring smaller images when their sactual sizes are the opposite ( an example : an apple being shown as  the same size as an elephant) ","no","stimuli/27-Inongruent.jpg","z","","","","","left","z","true"
"","null","html-keyboard-response","179","2.0.0","197648","pdok71gr219","smaller","cricket","The effect of measuring smaller images when their sactual sizes are the opposite ( an example : an apple being shown as  the same size as an elephant) ","no","<p>Correct!</p>","null","","","","","","",""
"","null","html-keyboard-response","180","2.0.0","198650","pdok71gr219","smaller","cricket","The effect of measuring smaller images when their sactual sizes are the opposite ( an example : an apple being shown as  the same size as an elephant) ","no","<div style=""font-size:60px;"">+</div>","null","","","","","","",""
"","914","image-keyboard-response","181","2.0.0","199565","pdok71gr219","smaller","cricket","The effect of measuring smaller images when their sactual sizes are the opposite ( an example : an apple being shown as  the same size as an elephant) ","no","stimuli/18-Inongruent.jpg","z","","","","","left","z","true"
"","null","html-keyboard-response","182","2.0.0","200467","pdok71gr219","smaller","cricket","The effect of measuring smaller images when their sactual sizes are the opposite ( an example : an apple being shown as  the same size as an elephant) ","no","<p>Correct!</p>","null","","","","","","",""
"","null","html-keyboard-response","183","2.0.0","201470","pdok71gr219","smaller","cricket","The effect of measuring smaller images when their sactual sizes are the opposite ( an example : an apple being shown as  the same size as an elephant) ","no","<div style=""font-size:60px;"">+</div>","null","","","","","","",""
"","555","image-keyboard-response","184","2.0.0","202026","pdok71gr219","smaller","cricket","The effect of measuring smaller images when their sactual sizes are the opposite ( an example : an apple being shown as  the same size as an elephant) ","no","stimuli/6-Inongruent.jpg","z","","","","","left","z","true"
"","null","html-keyboard-response","185","2.0.0","202927","pdok71gr219","smaller","cricket","The effect of measuring smaller images when their sactual sizes are the opposite ( an example : an apple being shown as  the same size as an elephant) ","no","<p>Correct!</p>","null","","","","","","",""
"","null","html-keyboard-response","186","2.0.0","203929","pdok71gr219","smaller","cricket","The effect of measuring smaller images when their sactual sizes are the opposite ( an example : an apple being shown as  the same size as an elephant) ","no","<div style=""font-size:60px;"">+</div>","null","","","","","","",""
"","551","image-keyboard-response","187","2.0.0","204482","pdok71gr219","smaller","cricket","The effect of measuring smaller images when their sactual sizes are the opposite ( an example : an apple being shown as  the same size as an elephant) ","no","stimuli/36-Congruent.jpg","m","","","","","right","m","true"
"","null","html-keyboard-response","188","2.0.0","205384","pdok71gr219","smaller","cricket","The effect of measuring smaller images when their sactual sizes are the opposite ( an example : an apple being shown as  the same size as an elephant) ","no","<p>Correct!</p>","null","","","","","","",""
"","null","html-keyboard-response","189","2.0.0","206387","pdok71gr219","smaller","cricket","The effect of measuring smaller images when their sactual sizes are the opposite ( an example : an apple being shown as  the same size as an elephant) ","no","<div style=""font-size:60px;"">+</div>","null","","","","","","",""
"","537","image-keyboard-response","190","2.0.0","206925","pdok71gr219","smaller","cricket","The effect of measuring smaller images when their sactual sizes are the opposite ( an example : an apple being shown as  the same size as an elephant) ","no","stimuli/25-Congruent.jpg","m","","","","","right","m","true"
"","null","html-keyboard-response","191","2.0.0","207826","pdok71gr219","smaller","cricket","The effect of measuring smaller images when their sactual sizes are the opposite ( an example : an apple being shown as  the same size as an elephant) ","no","<p>Correct!</p>","null","","","","","","",""
"","null","html-keyboard-response","192","2.0.0","208829","pdok71gr219","smaller","cricket","The effect of measuring smaller images when their sactual sizes are the opposite ( an example : an apple being shown as  the same size as an elephant) ","no","<div style=""font-size:60px;"">+</div>","null","","","","","","",""
"","420","image-keyboard-response","193","2.0.0","209250","pdok71gr219","smaller","cricket","The effect of measuring smaller images when their sactual sizes are the opposite ( an example : an apple being shown as  the same size as an elephant) ","no","stimuli/12-Inongruent.jpg","z","","","","","left","z","true"
"","null","html-keyboard-response","194","2.0.0","210152","pdok71gr219","smaller","cricket","The effect of measuring smaller images when their sactual sizes are the opposite ( an example : an apple being shown as  the same size as an elephant) ","no","<p>Correct!</p>","null","","","","","","",""
"","null","html-keyboard-response","195","2.0.0","211154","pdok71gr219","smaller","cricket","The effect of measuring smaller images when their sactual sizes are the opposite ( an example : an apple being shown as  the same size as an elephant) ","no","<div style=""font-size:60px;"">+</div>","null","","","","","","",""
"","414","image-keyboard-response","196","2.0.0","211569","pdok71gr219","smaller","cricket","The effect of measuring smaller images when their sactual sizes are the opposite ( an example : an apple being shown as  the same size as an elephant) ","no","stimuli/3-Congruent.jpg","m","","","","","right","m","true"
"","null","html-keyboard-response","197","2.0.0","212472","pdok71gr219","smaller","cricket","The effect of measuring smaller images when their sactual sizes are the opposite ( an example : an apple being shown as  the same size as an elephant) ","no","<p>Correct!</p>","null","","","","","","",""
"","null","html-keyboard-response","198","2.0.0","213474","pdok71gr219","smaller","cricket","The effect of measuring smaller images when their sactual sizes are the opposite ( an example : an apple being shown as  the same size as an elephant) ","no","<div style=""font-size:60px;"">+</div>","null","","","","","","",""
"","518","image-keyboard-response","199","2.0.0","213993","pdok71gr219","smaller","cricket","The effect of measuring smaller images when their sactual sizes are the opposite ( an example : an apple being shown as  the same size as an elephant) ","no","stimuli/14-Inongruent.jpg","z","","","","","left","z","true"
"","null","html-keyboard-response","200","2.0.0","214895","pdok71gr219","smaller","cricket","The effect of measuring smaller images when their sactual sizes are the opposite ( an example : an apple being shown as  the same size as an elephant) ","no","<p>Correct!</p>","null","","","","","","",""
"","null","html-keyboard-response","201","2.0.0","215896","pdok71gr219","smaller","cricket","The effect of measuring smaller images when their sactual sizes are the opposite ( an example : an apple being shown as  the same size as an elephant) ","no","<div style=""font-size:60px;"">+</div>","null","","","","","","",""
"","442","image-keyboard-response","202","2.0.0","216339","pdok71gr219","smaller","cricket","The effect of measuring smaller images when their sactual sizes are the opposite ( an example : an apple being shown as  the same size as an elephant) ","no","stimuli/22-Inongruent.jpg","z","","","","","left","z","true"
"","null","html-keyboard-response","203","2.0.0","217242","pdok71gr219","smaller","cricket","The effect of measuring smaller images when their sactual sizes are the opposite ( an example : an apple being shown as  the same size as an elephant) ","no","<p>Correct!</p>","null","","","","","","",""
"","null","html-keyboard-response","204","2.0.0","218243","pdok71gr219","smaller","cricket","The effect of measuring smaller images when their sactual sizes are the opposite ( an example : an apple being shown as  the same size as an elephant) ","no","<div style=""font-size:60px;"">+</div>","null","","","","","","",""
"","533","image-keyboard-response","205","2.0.0","218778","pdok71gr219","smaller","cricket","The effect of measuring smaller images when their sactual sizes are the opposite ( an example : an apple being shown as  the same size as an elephant) ","no","stimuli/7-Congruent.jpg","m","","","","","right","m","true"
"","null","html-keyboard-response","206","2.0.0","219681","pdok71gr219","smaller","cricket","The effect of measuring smaller images when their sactual sizes are the opposite ( an example : an apple being shown as  the same size as an elephant) ","no","<p>Correct!</p>","null","","","","","","",""
"","null","html-keyboard-response","207","2.0.0","220683","pdok71gr219","smaller","cricket","The effect of measuring smaller images when their sactual sizes are the opposite ( an example : an apple being shown as  the same size as an elephant) ","no","<div style=""font-size:60px;"">+</div>","null","","","","","","",""
"","388","image-keyboard-response","208","2.0.0","221072","pdok71gr219","smaller","cricket","The effect of measuring smaller images when their sactual sizes are the opposite ( an example : an apple being shown as  the same size as an elephant) ","no","stimuli/13-Inongruent.jpg","z","","","","","left","z","true"
"","null","html-keyboard-response","209","2.0.0","221975","pdok71gr219","smaller","cricket","The effect of measuring smaller images when their sactual sizes are the opposite ( an example : an apple being shown as  the same size as an elephant) ","no","<p>Correct!</p>","null","","","","","","",""
"","null","html-keyboard-response","210","2.0.0","222977","pdok71gr219","smaller","cricket","The effect of measuring smaller images when their sactual sizes are the opposite ( an example : an apple being shown as  the same size as an elephant) ","no","<div style=""font-size:60px;"">+</div>","null","","","","","","",""
"","447","image-keyboard-response","211","2.0.0","223425","pdok71gr219","smaller","cricket","The effect of measuring smaller images when their sactual sizes are the opposite ( an example : an apple being shown as  the same size as an elephant) ","no","stimuli/21-Congruent.jpg","m","","","","","right","m","true"
"","null","html-keyboard-response","212","2.0.0","224328","pdok71gr219","smaller","cricket","The effect of measuring smaller images when their sactual sizes are the opposite ( an example : an apple being shown as  the same size as an elephant) ","no","<p>Correct!</p>","null","","","","","","",""
"","null","html-keyboard-response","213","2.0.0","225331","pdok71gr219","smaller","cricket","The effect of measuring smaller images when their sactual sizes are the opposite ( an example : an apple being shown as  the same size as an elephant) ","no","<div style=""font-size:60px;"">+</div>","null","","","","","","",""
"","998","image-keyboard-response","214","2.0.0","226329","pdok71gr219","smaller","cricket","The effect of measuring smaller images when their sactual sizes are the opposite ( an example : an apple being shown as  the same size as an elephant) ","no","stimuli/36-Inongruent.jpg","z","","","","","left","z","true"
"","null","html-keyboard-response","215","2.0.0","227231","pdok71gr219","smaller","cricket","The effect of measuring smaller images when their sactual sizes are the opposite ( an example : an apple being shown as  the same size as an elephant) ","no","<p>Correct!</p>","null","","","","","","",""
"","null","html-keyboard-response","216","2.0.0","228234","pdok71gr219","smaller","cricket","The effect of measuring smaller images when their sactual sizes are the opposite ( an example : an apple being shown as  the same size as an elephant) ","no","<div style=""font-size:60px;"">+</div>","null","","","","","","",""
"","454","image-keyboard-response","217","2.0.0","228689","pdok71gr219","smaller","cricket","The effect of measuring smaller images when their sactual sizes are the opposite ( an example : an apple being shown as  the same size as an elephant) ","no","stimuli/19-Congruent.jpg","m","","","","","right","m","true"
"","null","html-keyboard-response","218","2.0.0","229592","pdok71gr219","smaller","cricket","The effect of measuring smaller images when their sactual sizes are the opposite ( an example : an apple being shown as  the same size as an elephant) ","no","<p>Correct!</p>","null","","","","","","",""
"","null","html-keyboard-response","219","2.0.0","230595","pdok71gr219","smaller","cricket","The effect of measuring smaller images when their sactual sizes are the opposite ( an example : an apple being shown as  the same size as an elephant) ","no","<div style=""font-size:60px;"">+</div>","null","","","","","","",""
"","373","image-keyboard-response","220","2.0.0","230969","pdok71gr219","smaller","cricket","The effect of measuring smaller images when their sactual sizes are the opposite ( an example : an apple being shown as  the same size as an elephant) ","no","stimuli/4-Inongruent.jpg","z","","","","","left","z","true"
"","null","html-keyboard-response","221","2.0.0","231872","pdok71gr219","smaller","cricket","The effect of measuring smaller images when their sactual sizes are the opposite ( an example : an apple being shown as  the same size as an elephant) ","no","<p>Correct!</p>","null","","","","","","",""
"","null","html-keyboard-response","222","2.0.0","232874","pdok71gr219","smaller","cricket","The effect of measuring smaller images when their sactual sizes are the opposite ( an example : an apple being shown as  the same size as an elephant) ","no","<div style=""font-size:60px;"">+</div>","null","","","","","","",""
"","453","image-keyboard-response","223","2.0.0","233329","pdok71gr219","smaller","cricket","The effect of measuring smaller images when their sactual sizes are the opposite ( an example : an apple being shown as  the same size as an elephant) ","no","stimuli/34-Congruent.jpg","m","","","","","right","m","true"
"","null","html-keyboard-response","224","2.0.0","234231","pdok71gr219","smaller","cricket","The effect of measuring smaller images when their sactual sizes are the opposite ( an example : an apple being shown as  the same size as an elephant) ","no","<p>Correct!</p>","null","","","","","","",""
"","null","html-keyboard-response","225","2.0.0","235232","pdok71gr219","smaller","cricket","The effect of measuring smaller images when their sactual sizes are the opposite ( an example : an apple being shown as  the same size as an elephant) ","no","<div style=""font-size:60px;"">+</div>","null","","","","","","",""
"","615","image-keyboard-response","226","2.0.0","235848","pdok71gr219","smaller","cricket","The effect of measuring smaller images when their sactual sizes are the opposite ( an example : an apple being shown as  the same size as an elephant) ","no","stimuli/18-Congruent.jpg","z","","","","","right","m","false"
"","null","html-keyboard-response","227","2.0.0","240850","pdok71gr219","smaller","cricket","The effect of measuring smaller images when their sactual sizes are the opposite ( an example : an apple being shown as  the same size as an elephant) ","no","<p>Incorrect.</p><p>Remember to select the <b>smaller</b> image.</p><p>Continuing in 5 seconds...</p>","null","","","","","","",""
"","null","html-keyboard-response","228","2.0.0","241852","pdok71gr219","smaller","cricket","The effect of measuring smaller images when their sactual sizes are the opposite ( an example : an apple being shown as  the same size as an elephant) ","no","<div style=""font-size:60px;"">+</div>","null","","","","","","",""
"","662","image-keyboard-response","229","2.0.0","242516","pdok71gr219","smaller","cricket","The effect of measuring smaller images when their sactual sizes are the opposite ( an example : an apple being shown as  the same size as an elephant) ","no","stimuli/16-Inongruent.jpg","z","","","","","left","z","true"
"","null","html-keyboard-response","230","2.0.0","243418","pdok71gr219","smaller","cricket","The effect of measuring smaller images when their sactual sizes are the opposite ( an example : an apple being shown as  the same size as an elephant) ","no","<p>Correct!</p>","null","","","","","","",""
"","null","html-keyboard-response","231","2.0.0","244420","pdok71gr219","smaller","cricket","The effect of measuring smaller images when their sactual sizes are the opposite ( an example : an apple being shown as  the same size as an elephant) ","no","<div style=""font-size:60px;"">+</div>","null","","","","","","",""
"","491","image-keyboard-response","232","2.0.0","244913","pdok71gr219","smaller","cricket","The effect of measuring smaller images when their sactual sizes are the opposite ( an example : an apple being shown as  the same size as an elephant) ","no","stimuli/10-Inongruent.jpg","z","","","","","left","z","true"
"","null","html-keyboard-response","233","2.0.0","245814","pdok71gr219","smaller","cricket","The effect of measuring smaller images when their sactual sizes are the opposite ( an example : an apple being shown as  the same size as an elephant) ","no","<p>Correct!</p>","null","","","","","","",""
"","null","html-keyboard-response","234","2.0.0","246817","pdok71gr219","smaller","cricket","The effect of measuring smaller images when their sactual sizes are the opposite ( an example : an apple being shown as  the same size as an elephant) ","no","<div style=""font-size:60px;"">+</div>","null","","","","","","",""
"","417","image-keyboard-response","235","2.0.0","247235","pdok71gr219","smaller","cricket","The effect of measuring smaller images when their sactual sizes are the opposite ( an example : an apple being shown as  the same size as an elephant) ","no","stimuli/22-Inongruent.jpg","z","","","","","left","z","true"
"","null","html-keyboard-response","236","2.0.0","248137","pdok71gr219","smaller","cricket","The effect of measuring smaller images when their sactual sizes are the opposite ( an example : an apple being shown as  the same size as an elephant) ","no","<p>Correct!</p>","null","","","","","","",""
"","null","html-keyboard-response","237","2.0.0","249140","pdok71gr219","smaller","cricket","The effect of measuring smaller images when their sactual sizes are the opposite ( an example : an apple being shown as  the same size as an elephant) ","no","<div style=""font-size:60px;"">+</div>","null","","","","","","",""
"","484","image-keyboard-response","238","2.0.0","249625","pdok71gr219","smaller","cricket","The effect of measuring smaller images when their sactual sizes are the opposite ( an example : an apple being shown as  the same size as an elephant) ","no","stimuli/30-Congruent.jpg","m","","","","","right","m","true"
"","null","html-keyboard-response","239","2.0.0","250527","pdok71gr219","smaller","cricket","The effect of measuring smaller images when their sactual sizes are the opposite ( an example : an apple being shown as  the same size as an elephant) ","no","<p>Correct!</p>","null","","","","","","",""
"","null","html-keyboard-response","240","2.0.0","251529","pdok71gr219","smaller","cricket","The effect of measuring smaller images when their sactual sizes are the opposite ( an example : an apple being shown as  the same size as an elephant) ","no","<div style=""font-size:60px;"">+</div>","null","","","","","","",""
"","446","image-keyboard-response","241","2.0.0","251976","pdok71gr219","smaller","cricket","The effect of measuring smaller images when their sactual sizes are the opposite ( an example : an apple being shown as  the same size as an elephant) ","no","stimuli/3-Inongruent.jpg","z","","","","","left","z","true"
"","null","html-keyboard-response","242","2.0.0","252877","pdok71gr219","smaller","cricket","The effect of measuring smaller images when their sactual sizes are the opposite ( an example : an apple being shown as  the same size as an elephant) ","no","<p>Correct!</p>","null","","","","","","",""
"","null","html-keyboard-response","243","2.0.0","253879","pdok71gr219","smaller","cricket","The effect of measuring smaller images when their sactual sizes are the opposite ( an example : an apple being shown as  the same size as an elephant) ","no","<div style=""font-size:60px;"">+</div>","null","","","","","","",""
"","648","image-keyboard-response","244","2.0.0","254529","pdok71gr219","smaller","cricket","The effect of measuring smaller images when their sactual sizes are the opposite ( an example : an apple being shown as  the same size as an elephant) ","no","stimuli/22-Congruent.jpg","m","","","","","right","m","true"
"","null","html-keyboard-response","245","2.0.0","255431","pdok71gr219","smaller","cricket","The effect of measuring smaller images when their sactual sizes are the opposite ( an example : an apple being shown as  the same size as an elephant) ","no","<p>Correct!</p>","null","","","","","","",""
"","null","html-keyboard-response","246","2.0.0","256433","pdok71gr219","smaller","cricket","The effect of measuring smaller images when their sactual sizes are the opposite ( an example : an apple being shown as  the same size as an elephant) ","no","<div style=""font-size:60px;"">+</div>","null","","","","","","",""
"","704","image-keyboard-response","247","2.0.0","257139","pdok71gr219","smaller","cricket","The effect of measuring smaller images when their sactual sizes are the opposite ( an example : an apple being shown as  the same size as an elephant) ","no","stimuli/17-Congruent.jpg","m","","","","","right","m","true"
"","null","html-keyboard-response","248","2.0.0","258042","pdok71gr219","smaller","cricket","The effect of measuring smaller images when their sactual sizes are the opposite ( an example : an apple being shown as  the same size as an elephant) ","no","<p>Correct!</p>","null","","","","","","",""
"","null","html-keyboard-response","249","2.0.0","259044","pdok71gr219","smaller","cricket","The effect of measuring smaller images when their sactual sizes are the opposite ( an example : an apple being shown as  the same size as an elephant) ","no","<div style=""font-size:60px;"">+</div>","null","","","","","","",""
"","524","image-keyboard-response","250","2.0.0","259569","pdok71gr219","smaller","cricket","The effect of measuring smaller images when their sactual sizes are the opposite ( an example : an apple being shown as  the same size as an elephant) ","no","stimuli/29-Congruent.jpg","m","","","","","right","m","true"
"","null","html-keyboard-response","251","2.0.0","260471","pdok71gr219","smaller","cricket","The effect of measuring smaller images when their sactual sizes are the opposite ( an example : an apple being shown as  the same size as an elephant) ","no","<p>Correct!</p>","null","","","","","","",""
"","null","html-keyboard-response","252","2.0.0","261473","pdok71gr219","smaller","cricket","The effect of measuring smaller images when their sactual sizes are the opposite ( an example : an apple being shown as  the same size as an elephant) ","no","<div style=""font-size:60px;"">+</div>","null","","","","","","",""
"","513","image-keyboard-response","253","2.0.0","261987","pdok71gr219","smaller","cricket","The effect of measuring smaller images when their sactual sizes are the opposite ( an example : an apple being shown as  the same size as an elephant) ","no","stimuli/16-Congruent.jpg","m","","","","","right","m","true"
"","null","html-keyboard-response","254","2.0.0","262889","pdok71gr219","smaller","cricket","The effect of measuring smaller images when their sactual sizes are the opposite ( an example : an apple being shown as  the same size as an elephant) ","no","<p>Correct!</p>","null","","","","","","",""
"","null","html-keyboard-response","255","2.0.0","263892","pdok71gr219","smaller","cricket","The effect of measuring smaller images when their sactual sizes are the opposite ( an example : an apple being shown as  the same size as an elephant) ","no","<div style=""font-size:60px;"">+</div>","null","","","","","","",""
"","547","image-keyboard-response","256","2.0.0","264440","pdok71gr219","smaller","cricket","The effect of measuring smaller images when their sactual sizes are the opposite ( an example : an apple being shown as  the same size as an elephant) ","no","stimuli/9-Congruent.jpg","m","","","","","right","m","true"
"","null","html-keyboard-response","257","2.0.0","265343","pdok71gr219","smaller","cricket","The effect of measuring smaller images when their sactual sizes are the opposite ( an example : an apple being shown as  the same size as an elephant) ","no","<p>Correct!</p>","null","","","","","","",""
"","null","html-keyboard-response","258","2.0.0","266345","pdok71gr219","smaller","cricket","The effect of measuring smaller images when their sactual sizes are the opposite ( an example : an apple being shown as  the same size as an elephant) ","no","<div style=""font-size:60px;"">+</div>","null","","","","","","",""
"","600","image-keyboard-response","259","2.0.0","266947","pdok71gr219","smaller","cricket","The effect of measuring smaller images when their sactual sizes are the opposite ( an example : an apple being shown as  the same size as an elephant) ","no","stimuli/10-Congruent.jpg","m","","","","","right","m","true"
"","null","html-keyboard-response","260","2.0.0","267849","pdok71gr219","smaller","cricket","The effect of measuring smaller images when their sactual sizes are the opposite ( an example : an apple being shown as  the same size as an elephant) ","no","<p>Correct!</p>","null","","","","","","",""
"","null","html-keyboard-response","261","2.0.0","268850","pdok71gr219","smaller","cricket","The effect of measuring smaller images when their sactual sizes are the opposite ( an example : an apple being shown as  the same size as an elephant) ","no","<div style=""font-size:60px;"">+</div>","null","","","","","","",""
"","500","image-keyboard-response","262","2.0.0","269352","pdok71gr219","smaller","cricket","The effect of measuring smaller images when their sactual sizes are the opposite ( an example : an apple being shown as  the same size as an elephant) ","no","stimuli/14-Congruent.jpg","m","","","","","right","m","true"
"","null","html-keyboard-response","263","2.0.0","270254","pdok71gr219","smaller","cricket","The effect of measuring smaller images when their sactual sizes are the opposite ( an example : an apple being shown as  the same size as an elephant) ","no","<p>Correct!</p>","null","","","","","","",""
"","null","html-keyboard-response","264","2.0.0","271256","pdok71gr219","smaller","cricket","The effect of measuring smaller images when their sactual sizes are the opposite ( an example : an apple being shown as  the same size as an elephant) ","no","<div style=""font-size:60px;"">+</div>","null","","","","","","",""
"","577","image-keyboard-response","265","2.0.0","271834","pdok71gr219","smaller","cricket","The effect of measuring smaller images when their sactual sizes are the opposite ( an example : an apple being shown as  the same size as an elephant) ","no","stimuli/11-Congruent.jpg","m","","","","","right","m","true"
"","null","html-keyboard-response","266","2.0.0","272737","pdok71gr219","smaller","cricket","The effect of measuring smaller images when their sactual sizes are the opposite ( an example : an apple being shown as  the same size as an elephant) ","no","<p>Correct!</p>","null","","","","","","",""
"","null","html-keyboard-response","267","2.0.0","273739","pdok71gr219","smaller","cricket","The effect of measuring smaller images when their sactual sizes are the opposite ( an example : an apple being shown as  the same size as an elephant) ","no","<div style=""font-size:60px;"">+</div>","null","","","","","","",""
"","852","image-keyboard-response","268","2.0.0","274592","pdok71gr219","smaller","cricket","The effect of measuring smaller images when their sactual sizes are the opposite ( an example : an apple being shown as  the same size as an elephant) ","no","stimuli/35-Congruent.jpg","m","","","","","right","m","true"
"","null","html-keyboard-response","269","2.0.0","275495","pdok71gr219","smaller","cricket","The effect of measuring smaller images when their sactual sizes are the opposite ( an example : an apple being shown as  the same size as an elephant) ","no","<p>Correct!</p>","null","","","","","","",""
"","null","html-keyboard-response","270","2.0.0","276497","pdok71gr219","smaller","cricket","The effect of measuring smaller images when their sactual sizes are the opposite ( an example : an apple being shown as  the same size as an elephant) ","no","<div style=""font-size:60px;"">+</div>","null","","","","","","",""
"","446","image-keyboard-response","271","2.0.0","276944","pdok71gr219","smaller","cricket","The effect of measuring smaller images when their sactual sizes are the opposite ( an example : an apple being shown as  the same size as an elephant) ","no","stimuli/12-Inongruent.jpg","z","","","","","left","z","true"
"","null","html-keyboard-response","272","2.0.0","277846","pdok71gr219","smaller","cricket","The effect of measuring smaller images when their sactual sizes are the opposite ( an example : an apple being shown as  the same size as an elephant) ","no","<p>Correct!</p>","null","","","","","","",""
"","null","html-keyboard-response","273","2.0.0","278849","pdok71gr219","smaller","cricket","The effect of measuring smaller images when their sactual sizes are the opposite ( an example : an apple being shown as  the same size as an elephant) ","no","<div style=""font-size:60px;"">+</div>","null","","","","","","",""
"","453","image-keyboard-response","274","2.0.0","279304","pdok71gr219","smaller","cricket","The effect of measuring smaller images when their sactual sizes are the opposite ( an example : an apple being shown as  the same size as an elephant) ","no","stimuli/21-Congruent.jpg","m","","","","","right","m","true"
"","null","html-keyboard-response","275","2.0.0","280205","pdok71gr219","smaller","cricket","The effect of measuring smaller images when their sactual sizes are the opposite ( an example : an apple being shown as  the same size as an elephant) ","no","<p>Correct!</p>","null","","","","","","",""
"","null","html-keyboard-response","276","2.0.0","281208","pdok71gr219","smaller","cricket","The effect of measuring smaller images when their sactual sizes are the opposite ( an example : an apple being shown as  the same size as an elephant) ","no","<div style=""font-size:60px;"">+</div>","null","","","","","","",""
"","486","image-keyboard-response","277","2.0.0","281695","pdok71gr219","smaller","cricket","The effect of measuring smaller images when their sactual sizes are the opposite ( an example : an apple being shown as  the same size as an elephant) ","no","stimuli/20-Inongruent.jpg","z","","","","","left","z","true"
"","null","html-keyboard-response","278","2.0.0","282597","pdok71gr219","smaller","cricket","The effect of measuring smaller images when their sactual sizes are the opposite ( an example : an apple being shown as  the same size as an elephant) ","no","<p>Correct!</p>","null","","","","","","",""
"","null","html-keyboard-response","279","2.0.0","283599","pdok71gr219","smaller","cricket","The effect of measuring smaller images when their sactual sizes are the opposite ( an example : an apple being shown as  the same size as an elephant) ","no","<div style=""font-size:60px;"">+</div>","null","","","","","","",""
"","481","image-keyboard-response","280","2.0.0","284082","pdok71gr219","smaller","cricket","The effect of measuring smaller images when their sactual sizes are the opposite ( an example : an apple being shown as  the same size as an elephant) ","no","stimuli/2-Inongruent.jpg","z","","","","","left","z","true"
"","null","html-keyboard-response","281","2.0.0","284983","pdok71gr219","smaller","cricket","The effect of measuring smaller images when their sactual sizes are the opposite ( an example : an apple being shown as  the same size as an elephant) ","no","<p>Correct!</p>","null","","","","","","",""
"","null","html-keyboard-response","282","2.0.0","285986","pdok71gr219","smaller","cricket","The effect of measuring smaller images when their sactual sizes are the opposite ( an example : an apple being shown as  the same size as an elephant) ","no","<div style=""font-size:60px;"">+</div>","null","","","","","","",""
"","1820","image-keyboard-response","283","2.0.0","287808","pdok71gr219","smaller","cricket","The effect of measuring smaller images when their sactual sizes are the opposite ( an example : an apple being shown as  the same size as an elephant) ","no","stimuli/1-Congruent.jpg","z","","","","","right","m","false"
"","null","html-keyboard-response","284","2.0.0","292809","pdok71gr219","smaller","cricket","The effect of measuring smaller images when their sactual sizes are the opposite ( an example : an apple being shown as  the same size as an elephant) ","no","<p>Incorrect.</p><p>Remember to select the <b>smaller</b> image.</p><p>Continuing in 5 seconds...</p>","null","","","","","","",""
"","null","html-keyboard-response","285","2.0.0","293812","pdok71gr219","smaller","cricket","The effect of measuring smaller images when their sactual sizes are the opposite ( an example : an apple being shown as  the same size as an elephant) ","no","<div style=""font-size:60px;"">+</div>","null","","","","","","",""
"","954","image-keyboard-response","286","2.0.0","294768","pdok71gr219","smaller","cricket","The effect of measuring smaller images when their sactual sizes are the opposite ( an example : an apple being shown as  the same size as an elephant) ","no","stimuli/10-Congruent.jpg","m","","","","","right","m","true"
"","null","html-keyboard-response","287","2.0.0","295670","pdok71gr219","smaller","cricket","The effect of measuring smaller images when their sactual sizes are the opposite ( an example : an apple being shown as  the same size as an elephant) ","no","<p>Correct!</p>","null","","","","","","",""
"","null","html-keyboard-response","288","2.0.0","296672","pdok71gr219","smaller","cricket","The effect of measuring smaller images when their sactual sizes are the opposite ( an example : an apple being shown as  the same size as an elephant) ","no","<div style=""font-size:60px;"">+</div>","null","","","","","","",""
"","793","image-keyboard-response","289","2.0.0","297466","pdok71gr219","smaller","cricket","The effect of measuring smaller images when their sactual sizes are the opposite ( an example : an apple being shown as  the same size as an elephant) ","no","stimuli/11-Congruent.jpg","m","","","","","right","m","true"
"","null","html-keyboard-response","290","2.0.0","298368","pdok71gr219","smaller","cricket","The effect of measuring smaller images when their sactual sizes are the opposite ( an example : an apple being shown as  the same size as an elephant) ","no","<p>Correct!</p>","null","","","","","","",""
"","null","html-keyboard-response","291","2.0.0","299370","pdok71gr219","smaller","cricket","The effect of measuring smaller images when their sactual sizes are the opposite ( an example : an apple being shown as  the same size as an elephant) ","no","<div style=""font-size:60px;"">+</div>","null","","","","","","",""
"","947","image-keyboard-response","292","2.0.0","300319","pdok71gr219","smaller","cricket","The effect of measuring smaller images when their sactual sizes are the opposite ( an example : an apple being shown as  the same size as an elephant) ","no","stimuli/7-Inongruent.jpg","z","","","","","left","z","true"
"","null","html-keyboard-response","293","2.0.0","301220","pdok71gr219","smaller","cricket","The effect of measuring smaller images when their sactual sizes are the opposite ( an example : an apple being shown as  the same size as an elephant) ","no","<p>Correct!</p>","null","","","","","","",""
"","null","html-keyboard-response","294","2.0.0","302221","pdok71gr219","smaller","cricket","The effect of measuring smaller images when their sactual sizes are the opposite ( an example : an apple being shown as  the same size as an elephant) ","no","<div style=""font-size:60px;"">+</div>","null","","","","","","",""
"","619","image-keyboard-response","295","2.0.0","302842","pdok71gr219","smaller","cricket","The effect of measuring smaller images when their sactual sizes are the opposite ( an example : an apple being shown as  the same size as an elephant) ","no","stimuli/33-Inongruent.jpg","z","","","","","left","z","true"
"","null","html-keyboard-response","296","2.0.0","303745","pdok71gr219","smaller","cricket","The effect of measuring smaller images when their sactual sizes are the opposite ( an example : an apple being shown as  the same size as an elephant) ","no","<p>Correct!</p>","null","","","","","","",""
"","null","html-keyboard-response","297","2.0.0","304747","pdok71gr219","smaller","cricket","The effect of measuring smaller images when their sactual sizes are the opposite ( an example : an apple being shown as  the same size as an elephant) ","no","<div style=""font-size:60px;"">+</div>","null","","","","","","",""
"","443","image-keyboard-response","298","2.0.0","305191","pdok71gr219","smaller","cricket","The effect of measuring smaller images when their sactual sizes are the opposite ( an example : an apple being shown as  the same size as an elephant) ","no","stimuli/9-Inongruent.jpg","z","","","","","left","z","true"
"","null","html-keyboard-response","299","2.0.0","306093","pdok71gr219","smaller","cricket","The effect of measuring smaller images when their sactual sizes are the opposite ( an example : an apple being shown as  the same size as an elephant) ","no","<p>Correct!</p>","null","","","","","","",""
"","null","html-keyboard-response","300","2.0.0","307095","pdok71gr219","smaller","cricket","The effect of measuring smaller images when their sactual sizes are the opposite ( an example : an apple being shown as  the same size as an elephant) ","no","<div style=""font-size:60px;"">+</div>","null","","","","","","",""
"","1294","image-keyboard-response","301","2.0.0","308391","pdok71gr219","smaller","cricket","The effect of measuring smaller images when their sactual sizes are the opposite ( an example : an apple being shown as  the same size as an elephant) ","no","stimuli/5-Congruent.jpg","m","","","","","right","m","true"
"","null","html-keyboard-response","302","2.0.0","309293","pdok71gr219","smaller","cricket","The effect of measuring smaller images when their sactual sizes are the opposite ( an example : an apple being shown as  the same size as an elephant) ","no","<p>Correct!</p>","null","","","","","","",""
"","null","html-keyboard-response","303","2.0.0","310295","pdok71gr219","smaller","cricket","The effect of measuring smaller images when their sactual sizes are the opposite ( an example : an apple being shown as  the same size as an elephant) ","no","<div style=""font-size:60px;"">+</div>","null","","","","","","",""
"","1055","image-keyboard-response","304","2.0.0","311351","pdok71gr219","smaller","cricket","The effect of measuring smaller images when their sactual sizes are the opposite ( an example : an apple being shown as  the same size as an elephant) ","no","stimuli/36-Inongruent.jpg","z","","","","","left","z","true"
"","null","html-keyboard-response","305","2.0.0","312253","pdok71gr219","smaller","cricket","The effect of measuring smaller images when their sactual sizes are the opposite ( an example : an apple being shown as  the same size as an elephant) ","no","<p>Correct!</p>","null","","","","","","",""
"","null","html-keyboard-response","306","2.0.0","313255","pdok71gr219","smaller","cricket","The effect of measuring smaller images when their sactual sizes are the opposite ( an example : an apple being shown as  the same size as an elephant) ","no","<div style=""font-size:60px;"">+</div>","null","","","","","","",""
"","677","image-keyboard-response","307","2.0.0","313934","pdok71gr219","smaller","cricket","The effect of measuring smaller images when their sactual sizes are the opposite ( an example : an apple being shown as  the same size as an elephant) ","no","stimuli/33-Congruent.jpg","m","","","","","right","m","true"
"","null","html-keyboard-response","308","2.0.0","314836","pdok71gr219","smaller","cricket","The effect of measuring smaller images when their sactual sizes are the opposite ( an example : an apple being shown as  the same size as an elephant) ","no","<p>Correct!</p>","null","","","","","","",""
"","null","html-keyboard-response","309","2.0.0","315839","pdok71gr219","smaller","cricket","The effect of measuring smaller images when their sactual sizes are the opposite ( an example : an apple being shown as  the same size as an elephant) ","no","<div style=""font-size:60px;"">+</div>","null","","","","","","",""
"","543","image-keyboard-response","310","2.0.0","316383","pdok71gr219","smaller","cricket","The effect of measuring smaller images when their sactual sizes are the opposite ( an example : an apple being shown as  the same size as an elephant) ","no","stimuli/20-Inongruent.jpg","z","","","","","left","z","true"
"","null","html-keyboard-response","311","2.0.0","317286","pdok71gr219","smaller","cricket","The effect of measuring smaller images when their sactual sizes are the opposite ( an example : an apple being shown as  the same size as an elephant) ","no","<p>Correct!</p>","null","","","","","","",""
"","null","html-keyboard-response","312","2.0.0","318288","pdok71gr219","smaller","cricket","The effect of measuring smaller images when their sactual sizes are the opposite ( an example : an apple being shown as  the same size as an elephant) ","no","<div style=""font-size:60px;"">+</div>","null","","","","","","",""
"","725","image-keyboard-response","313","2.0.0","319014","pdok71gr219","smaller","cricket","The effect of measuring smaller images when their sactual sizes are the opposite ( an example : an apple being shown as  the same size as an elephant) ","no","stimuli/24-Congruent.jpg","m","","","","","right","m","true"
"","null","html-keyboard-response","314","2.0.0","319916","pdok71gr219","smaller","cricket","The effect of measuring smaller images when their sactual sizes are the opposite ( an example : an apple being shown as  the same size as an elephant) ","no","<p>Correct!</p>","null","","","","","","",""
"","null","html-keyboard-response","315","2.0.0","320918","pdok71gr219","smaller","cricket","The effect of measuring smaller images when their sactual sizes are the opposite ( an example : an apple being shown as  the same size as an elephant) ","no","<div style=""font-size:60px;"">+</div>","null","","","","","","",""
"","623","image-keyboard-response","316","2.0.0","321543","pdok71gr219","smaller","cricket","The effect of measuring smaller images when their sactual sizes are the opposite ( an example : an apple being shown as  the same size as an elephant) ","no","stimuli/31-Inongruent.jpg","z","","","","","left","z","true"
"","null","html-keyboard-response","317","2.0.0","322444","pdok71gr219","smaller","cricket","The effect of measuring smaller images when their sactual sizes are the opposite ( an example : an apple being shown as  the same size as an elephant) ","no","<p>Correct!</p>","null","","","","","","",""
"","null","html-keyboard-response","318","2.0.0","323445","pdok71gr219","smaller","cricket","The effect of measuring smaller images when their sactual sizes are the opposite ( an example : an apple being shown as  the same size as an elephant) ","no","<div style=""font-size:60px;"">+</div>","null","","","","","","",""
