"success","rt","trial_type","trial_index","plugin_version","time_elapsed","random_id","condition","participant","participant_thoughts","participant_difficulties","stimulus","response","timeout","failed_images","failed_audio","failed_video","correct_response","correct_response_key","correct"
"true","1147","fullscreen","0","null","2152","pgfjabr4hpf","smaller","badger","","","","","","","","","","",""
"","908","html-keyboard-response","1","2.0.0","3061","pgfjabr4hpf","smaller","badger","","","Welcome to the Size Stroop experiment. Press any key to begin."," ","","","","","","",""
"","null","html-keyboard-response","2","2.0.0","4064","pgfjabr4hpf","smaller","badger","","","This trial will be in fullscreen mode.","null","","","","","","",""
"","1810","survey-text","3","2.0.0","5882","pgfjabr4hpf","smaller","badger","","","","{""participant_id"":""badger""}","","","","","","",""
"","12973","html-keyboard-response","4","2.0.0","18856","pgfjabr4hpf","smaller","badger","","","<p>In this experiment, two images will appear on the screen. Identify the <strong>smaller</strong> image.</p>
              <p>If the image on the left is smaller, press ""z"". If the image on the right is smaller, press ""m"".</p>
              <p>Press any key to begin.</p>"," ","","","","","","",""
"true","","preload","5","2.0.0","19289","pgfjabr4hpf","smaller","badger","","","","","false","[]","[]","[]","","",""
"","null","html-keyboard-response","6","2.0.0","20291","pgfjabr4hpf","smaller","badger","","","<div style=""font-size:60px;"">+</div>","null","","","","","","",""
"","5692","image-keyboard-response","7","2.0.0","25988","pgfjabr4hpf","smaller","badger","","","stimuli/35-Inongruent.jpg","z","","","","","left","z","true"
"","null","html-keyboard-response","8","2.0.0","26891","pgfjabr4hpf","smaller","badger","","","<p>Correct!</p>","null","","","","","","",""
"","null","html-keyboard-response","9","2.0.0","27895","pgfjabr4hpf","smaller","badger","","","<div style=""font-size:60px;"">+</div>","null","","","","","","",""
"","1814","image-keyboard-response","10","2.0.0","29711","pgfjabr4hpf","smaller","badger","","","stimuli/6-Inongruent.jpg","z","","","","","left","z","true"
"","null","html-keyboard-response","11","2.0.0","30613","pgfjabr4hpf","smaller","badger","","","<p>Correct!</p>","null","","","","","","",""
"","null","html-keyboard-response","12","2.0.0","31615","pgfjabr4hpf","smaller","badger","","","<div style=""font-size:60px;"">+</div>","null","","","","","","",""
"","1627","image-keyboard-response","13","2.0.0","33244","pgfjabr4hpf","smaller","badger","","","stimuli/27-Inongruent.jpg","z","","","","","left","z","true"
"","null","html-keyboard-response","14","2.0.0","34145","pgfjabr4hpf","smaller","badger","","","<p>Correct!</p>","null","","","","","","",""
"","null","html-keyboard-response","15","2.0.0","35148","pgfjabr4hpf","smaller","badger","","","<div style=""font-size:60px;"">+</div>","null","","","","","","",""
"","914","image-keyboard-response","16","2.0.0","36064","pgfjabr4hpf","smaller","badger","","","stimuli/19-Congruent.jpg","m","","","","","right","m","true"
"","null","html-keyboard-response","17","2.0.0","36967","pgfjabr4hpf","smaller","badger","","","<p>Correct!</p>","null","","","","","","",""
"","null","html-keyboard-response","18","2.0.0","37969","pgfjabr4hpf","smaller","badger","","","<div style=""font-size:60px;"">+</div>","null","","","","","","",""
"","1744","image-keyboard-response","19","2.0.0","39715","pgfjabr4hpf","smaller","badger","","","stimuli/26-Inongruent.jpg","z","","","","","left","z","true"
"","null","html-keyboard-response","20","2.0.0","40618","pgfjabr4hpf","smaller","badger","","","<p>Correct!</p>","null","","","","","","",""
"","null","html-keyboard-response","21","2.0.0","41621","pgfjabr4hpf","smaller","badger","","","<div style=""font-size:60px;"">+</div>","null","","","","","","",""
"","868","image-keyboard-response","22","2.0.0","42492","pgfjabr4hpf","smaller","badger","","","stimuli/35-Inongruent.jpg","z","","","","","left","z","true"
"","null","html-keyboard-response","23","2.0.0","43394","pgfjabr4hpf","smaller","badger","","","<p>Correct!</p>","null","","","","","","",""
"","null","html-keyboard-response","24","2.0.0","44397","pgfjabr4hpf","smaller","badger","","","<div style=""font-size:60px;"">+</div>","null","","","","","","",""
"","806","image-keyboard-response","25","2.0.0","45205","pgfjabr4hpf","smaller","badger","","","stimuli/36-Inongruent.jpg","z","","","","","left","z","true"
"","null","html-keyboard-response","26","2.0.0","46107","pgfjabr4hpf","smaller","badger","","","<p>Correct!</p>","null","","","","","","",""
"","null","html-keyboard-response","27","2.0.0","47110","pgfjabr4hpf","smaller","badger","","","<div style=""font-size:60px;"">+</div>","null","","","","","","",""
"","605","image-keyboard-response","28","2.0.0","47717","pgfjabr4hpf","smaller","badger","","","stimuli/1-Inongruent.jpg","z","","","","","left","z","true"
"","null","html-keyboard-response","29","2.0.0","48619","pgfjabr4hpf","smaller","badger","","","<p>Correct!</p>","null","","","","","","",""
"","null","html-keyboard-response","30","2.0.0","49622","pgfjabr4hpf","smaller","badger","","","<div style=""font-size:60px;"">+</div>","null","","","","","","",""
"","731","image-keyboard-response","31","2.0.0","50355","pgfjabr4hpf","smaller","badger","","","stimuli/30-Congruent.jpg","m","","","","","right","m","true"
"","null","html-keyboard-response","32","2.0.0","51257","pgfjabr4hpf","smaller","badger","","","<p>Correct!</p>","null","","","","","","",""
"","null","html-keyboard-response","33","2.0.0","52261","pgfjabr4hpf","smaller","badger","","","<div style=""font-size:60px;"">+</div>","null","","","","","","",""
"","928","image-keyboard-response","34","2.0.0","53191","pgfjabr4hpf","smaller","badger","","","stimuli/17-Congruent.jpg","m","","","","","right","m","true"
"","null","html-keyboard-response","35","2.0.0","54094","pgfjabr4hpf","smaller","badger","","","<p>Correct!</p>","null","","","","","","",""
"","null","html-keyboard-response","36","2.0.0","55096","pgfjabr4hpf","smaller","badger","","","<div style=""font-size:60px;"">+</div>","null","","","","","","",""
"","671","image-keyboard-response","37","2.0.0","55770","pgfjabr4hpf","smaller","badger","","","stimuli/10-Congruent.jpg","m","","","","","right","m","true"
"","null","html-keyboard-response","38","2.0.0","56672","pgfjabr4hpf","smaller","badger","","","<p>Correct!</p>","null","","","","","","",""
"","null","html-keyboard-response","39","2.0.0","57675","pgfjabr4hpf","smaller","badger","","","<div style=""font-size:60px;"">+</div>","null","","","","","","",""
"","616","image-keyboard-response","40","2.0.0","58293","pgfjabr4hpf","smaller","badger","","","stimuli/14-Congruent.jpg","m","","","","","right","m","true"
"","null","html-keyboard-response","41","2.0.0","59196","pgfjabr4hpf","smaller","badger","","","<p>Correct!</p>","null","","","","","","",""
"","null","html-keyboard-response","42","2.0.0","60198","pgfjabr4hpf","smaller","badger","","","<div style=""font-size:60px;"">+</div>","null","","","","","","",""
"","737","image-keyboard-response","43","2.0.0","60937","pgfjabr4hpf","smaller","badger","","","stimuli/15-Inongruent.jpg","z","","","","","left","z","true"
"","null","html-keyboard-response","44","2.0.0","61839","pgfjabr4hpf","smaller","badger","","","<p>Correct!</p>","null","","","","","","",""
"","null","html-keyboard-response","45","2.0.0","62842","pgfjabr4hpf","smaller","badger","","","<div style=""font-size:60px;"">+</div>","null","","","","","","",""
"","650","image-keyboard-response","46","2.0.0","63494","pgfjabr4hpf","smaller","badger","","","stimuli/15-Inongruent.jpg","z","","","","","left","z","true"
"","null","html-keyboard-response","47","2.0.0","64395","pgfjabr4hpf","smaller","badger","","","<p>Correct!</p>","null","","","","","","",""
"","null","html-keyboard-response","48","2.0.0","65398","pgfjabr4hpf","smaller","badger","","","<div style=""font-size:60px;"">+</div>","null","","","","","","",""
"","641","image-keyboard-response","49","2.0.0","66041","pgfjabr4hpf","smaller","badger","","","stimuli/9-Congruent.jpg","m","","","","","right","m","true"
"","null","html-keyboard-response","50","2.0.0","66943","pgfjabr4hpf","smaller","badger","","","<p>Correct!</p>","null","","","","","","",""
"","null","html-keyboard-response","51","2.0.0","67947","pgfjabr4hpf","smaller","badger","","","<div style=""font-size:60px;"">+</div>","null","","","","","","",""
"","729","image-keyboard-response","52","2.0.0","68678","pgfjabr4hpf","smaller","badger","","","stimuli/34-Congruent.jpg","m","","","","","right","m","true"
"","null","html-keyboard-response","53","2.0.0","69580","pgfjabr4hpf","smaller","badger","","","<p>Correct!</p>","null","","","","","","",""
"","null","html-keyboard-response","54","2.0.0","70583","pgfjabr4hpf","smaller","badger","","","<div style=""font-size:60px;"">+</div>","null","","","","","","",""
"","1451","image-keyboard-response","55","2.0.0","72037","pgfjabr4hpf","smaller","badger","","","stimuli/11-Congruent.jpg","m","","","","","right","m","true"
"","null","html-keyboard-response","56","2.0.0","72939","pgfjabr4hpf","smaller","badger","","","<p>Correct!</p>","null","","","","","","",""
"","null","html-keyboard-response","57","2.0.0","73942","pgfjabr4hpf","smaller","badger","","","<div style=""font-size:60px;"">+</div>","null","","","","","","",""
"","630","image-keyboard-response","58","2.0.0","74575","pgfjabr4hpf","smaller","badger","","","stimuli/35-Congruent.jpg","m","","","","","right","m","true"
"","null","html-keyboard-response","59","2.0.0","75478","pgfjabr4hpf","smaller","badger","","","<p>Correct!</p>","null","","","","","","",""
"","null","html-keyboard-response","60","2.0.0","76481","pgfjabr4hpf","smaller","badger","","","<div style=""font-size:60px;"">+</div>","null","","","","","","",""
"","646","image-keyboard-response","61","2.0.0","77129","pgfjabr4hpf","smaller","badger","","","stimuli/30-Inongruent.jpg","m","","","","","left","z","false"
"","2404","html-keyboard-response","62","2.0.0","79535","pgfjabr4hpf","smaller","badger","","","<p>Incorrect.</p><p>Remember to select the <b>smaller</b> image.</p><p>Continuing in 5 seconds...</p>"," ","","","","","","",""
"","null","html-keyboard-response","63","2.0.0","80538","pgfjabr4hpf","smaller","badger","","","<div style=""font-size:60px;"">+</div>","null","","","","","","",""
"","762","image-keyboard-response","64","2.0.0","81302","pgfjabr4hpf","smaller","badger","","","stimuli/19-Inongruent.jpg","z","","","","","left","z","true"
"","null","html-keyboard-response","65","2.0.0","82204","pgfjabr4hpf","smaller","badger","","","<p>Correct!</p>","null","","","","","","",""
"","null","html-keyboard-response","66","2.0.0","83206","pgfjabr4hpf","smaller","badger","","","<div style=""font-size:60px;"">+</div>","null","","","","","","",""
"","1536","image-keyboard-response","67","2.0.0","84744","pgfjabr4hpf","smaller","badger","","","stimuli/2-Inongruent.jpg","z","","","","","left","z","true"
"","null","html-keyboard-response","68","2.0.0","85648","pgfjabr4hpf","smaller","badger","","","<p>Correct!</p>","null","","","","","","",""
"","null","html-keyboard-response","69","2.0.0","86650","pgfjabr4hpf","smaller","badger","","","<div style=""font-size:60px;"">+</div>","null","","","","","","",""
"","1776","image-keyboard-response","70","2.0.0","88428","pgfjabr4hpf","smaller","badger","","","stimuli/31-Inongruent.jpg","z","","","","","left","z","true"
"","null","html-keyboard-response","71","2.0.0","89330","pgfjabr4hpf","smaller","badger","","","<p>Correct!</p>","null","","","","","","",""
"","null","html-keyboard-response","72","2.0.0","90333","pgfjabr4hpf","smaller","badger","","","<div style=""font-size:60px;"">+</div>","null","","","","","","",""
"","810","image-keyboard-response","73","2.0.0","91144","pgfjabr4hpf","smaller","badger","","","stimuli/25-Congruent.jpg","m","","","","","right","m","true"
"","null","html-keyboard-response","74","2.0.0","92046","pgfjabr4hpf","smaller","badger","","","<p>Correct!</p>","null","","","","","","",""
"","null","html-keyboard-response","75","2.0.0","93048","pgfjabr4hpf","smaller","badger","","","<div style=""font-size:60px;"">+</div>","null","","","","","","",""
"","1085","image-keyboard-response","76","2.0.0","94134","pgfjabr4hpf","smaller","badger","","","stimuli/9-Inongruent.jpg","z","","","","","left","z","true"
"","null","html-keyboard-response","77","2.0.0","95037","pgfjabr4hpf","smaller","badger","","","<p>Correct!</p>","null","","","","","","",""
"","null","html-keyboard-response","78","2.0.0","96040","pgfjabr4hpf","smaller","badger","","","<div style=""font-size:60px;"">+</div>","null","","","","","","",""
"","944","image-keyboard-response","79","2.0.0","96986","pgfjabr4hpf","smaller","badger","","","stimuli/18-Inongruent.jpg","z","","","","","left","z","true"
"","null","html-keyboard-response","80","2.0.0","97889","pgfjabr4hpf","smaller","badger","","","<p>Correct!</p>","null","","","","","","",""
"","null","html-keyboard-response","81","2.0.0","98892","pgfjabr4hpf","smaller","badger","","","<div style=""font-size:60px;"">+</div>","null","","","","","","",""
"","940","image-keyboard-response","82","2.0.0","99835","pgfjabr4hpf","smaller","badger","","","stimuli/25-Inongruent.jpg","z","","","","","left","z","true"
"","null","html-keyboard-response","83","2.0.0","100737","pgfjabr4hpf","smaller","badger","","","<p>Correct!</p>","null","","","","","","",""
"","null","html-keyboard-response","84","2.0.0","101738","pgfjabr4hpf","smaller","badger","","","<div style=""font-size:60px;"">+</div>","null","","","","","","",""
"","1387","image-keyboard-response","85","2.0.0","103126","pgfjabr4hpf","smaller","badger","","","stimuli/20-Inongruent.jpg","z","","","","","left","z","true"
"","null","html-keyboard-response","86","2.0.0","104028","pgfjabr4hpf","smaller","badger","","","<p>Correct!</p>","null","","","","","","",""
"","null","html-keyboard-response","87","2.0.0","105031","pgfjabr4hpf","smaller","badger","","","<div style=""font-size:60px;"">+</div>","null","","","","","","",""
"","995","image-keyboard-response","88","2.0.0","106028","pgfjabr4hpf","smaller","badger","","","stimuli/3-Inongruent.jpg","z","","","","","left","z","true"
"","null","html-keyboard-response","89","2.0.0","106930","pgfjabr4hpf","smaller","badger","","","<p>Correct!</p>","null","","","","","","",""
"","null","html-keyboard-response","90","2.0.0","107933","pgfjabr4hpf","smaller","badger","","","<div style=""font-size:60px;"">+</div>","null","","","","","","",""
"","1194","image-keyboard-response","91","2.0.0","109129","pgfjabr4hpf","smaller","badger","","","stimuli/31-Congruent.jpg","m","","","","","right","m","true"
"","null","html-keyboard-response","92","2.0.0","110031","pgfjabr4hpf","smaller","badger","","","<p>Correct!</p>","null","","","","","","",""
"","null","html-keyboard-response","93","2.0.0","111034","pgfjabr4hpf","smaller","badger","","","<div style=""font-size:60px;"">+</div>","null","","","","","","",""
"","1571","image-keyboard-response","94","2.0.0","112606","pgfjabr4hpf","smaller","badger","","","stimuli/12-Inongruent.jpg","z","","","","","left","z","true"
"","null","html-keyboard-response","95","2.0.0","113509","pgfjabr4hpf","smaller","badger","","","<p>Correct!</p>","null","","","","","","",""
"","null","html-keyboard-response","96","2.0.0","114512","pgfjabr4hpf","smaller","badger","","","<div style=""font-size:60px;"">+</div>","null","","","","","","",""
"","1335","image-keyboard-response","97","2.0.0","115849","pgfjabr4hpf","smaller","badger","","","stimuli/29-Inongruent.jpg","z","","","","","left","z","true"
"","null","html-keyboard-response","98","2.0.0","116751","pgfjabr4hpf","smaller","badger","","","<p>Correct!</p>","null","","","","","","",""
"","null","html-keyboard-response","99","2.0.0","117754","pgfjabr4hpf","smaller","badger","","","<div style=""font-size:60px;"">+</div>","null","","","","","","",""
"","990","image-keyboard-response","100","2.0.0","118746","pgfjabr4hpf","smaller","badger","","","stimuli/13-Congruent.jpg","m","","","","","right","m","true"
"","null","html-keyboard-response","101","2.0.0","119649","pgfjabr4hpf","smaller","badger","","","<p>Correct!</p>","null","","","","","","",""
"","null","html-keyboard-response","102","2.0.0","120651","pgfjabr4hpf","smaller","badger","","","<div style=""font-size:60px;"">+</div>","null","","","","","","",""
"","921","image-keyboard-response","103","2.0.0","121574","pgfjabr4hpf","smaller","badger","","","stimuli/1-Congruent.jpg","m","","","","","right","m","true"
"","null","html-keyboard-response","104","2.0.0","122477","pgfjabr4hpf","smaller","badger","","","<p>Correct!</p>","null","","","","","","",""
"","null","html-keyboard-response","105","2.0.0","123479","pgfjabr4hpf","smaller","badger","","","<div style=""font-size:60px;"">+</div>","null","","","","","","",""
"","759","image-keyboard-response","106","2.0.0","124241","pgfjabr4hpf","smaller","badger","","","stimuli/14-Inongruent.jpg","z","","","","","left","z","true"
"","null","html-keyboard-response","107","2.0.0","125143","pgfjabr4hpf","smaller","badger","","","<p>Correct!</p>","null","","","","","","",""
"","null","html-keyboard-response","108","2.0.0","126146","pgfjabr4hpf","smaller","badger","","","<div style=""font-size:60px;"">+</div>","null","","","","","","",""
"","639","image-keyboard-response","109","2.0.0","126787","pgfjabr4hpf","smaller","badger","","","stimuli/3-Congruent.jpg","m","","","","","right","m","true"
"","null","html-keyboard-response","110","2.0.0","127689","pgfjabr4hpf","smaller","badger","","","<p>Correct!</p>","null","","","","","","",""
"","null","html-keyboard-response","111","2.0.0","128692","pgfjabr4hpf","smaller","badger","","","<div style=""font-size:60px;"">+</div>","null","","","","","","",""
"","1077","image-keyboard-response","112","2.0.0","129771","pgfjabr4hpf","smaller","badger","","","stimuli/2-Congruent.jpg","m","","","","","right","m","true"
"","null","html-keyboard-response","113","2.0.0","130674","pgfjabr4hpf","smaller","badger","","","<p>Correct!</p>","null","","","","","","",""
"","null","html-keyboard-response","114","2.0.0","131677","pgfjabr4hpf","smaller","badger","","","<div style=""font-size:60px;"">+</div>","null","","","","","","",""
"","794","image-keyboard-response","115","2.0.0","132473","pgfjabr4hpf","smaller","badger","","","stimuli/33-Congruent.jpg","m","","","","","right","m","true"
"","null","html-keyboard-response","116","2.0.0","133375","pgfjabr4hpf","smaller","badger","","","<p>Correct!</p>","null","","","","","","",""
"","null","html-keyboard-response","117","2.0.0","134378","pgfjabr4hpf","smaller","badger","","","<div style=""font-size:60px;"">+</div>","null","","","","","","",""
"","707","image-keyboard-response","118","2.0.0","135086","pgfjabr4hpf","smaller","badger","","","stimuli/1-Inongruent.jpg","z","","","","","left","z","true"
"","null","html-keyboard-response","119","2.0.0","135988","pgfjabr4hpf","smaller","badger","","","<p>Correct!</p>","null","","","","","","",""
"","null","html-keyboard-response","120","2.0.0","136991","pgfjabr4hpf","smaller","badger","","","<div style=""font-size:60px;"">+</div>","null","","","","","","",""
"","1331","image-keyboard-response","121","2.0.0","138324","pgfjabr4hpf","smaller","badger","","","stimuli/13-Inongruent.jpg","z","","","","","left","z","true"
"","null","html-keyboard-response","122","2.0.0","139227","pgfjabr4hpf","smaller","badger","","","<p>Correct!</p>","null","","","","","","",""
"","null","html-keyboard-response","123","2.0.0","140231","pgfjabr4hpf","smaller","badger","","","<div style=""font-size:60px;"">+</div>","null","","","","","","",""
"","1067","image-keyboard-response","124","2.0.0","141300","pgfjabr4hpf","smaller","badger","","","stimuli/21-Inongruent.jpg","z","","","","","left","z","true"
"","null","html-keyboard-response","125","2.0.0","142203","pgfjabr4hpf","smaller","badger","","","<p>Correct!</p>","null","","","","","","",""
"","null","html-keyboard-response","126","2.0.0","143206","pgfjabr4hpf","smaller","badger","","","<div style=""font-size:60px;"">+</div>","null","","","","","","",""
"","1353","image-keyboard-response","127","2.0.0","144560","pgfjabr4hpf","smaller","badger","","","stimuli/16-Congruent.jpg","m","","","","","right","m","true"
"","null","html-keyboard-response","128","2.0.0","145463","pgfjabr4hpf","smaller","badger","","","<p>Correct!</p>","null","","","","","","",""
"","null","html-keyboard-response","129","2.0.0","146464","pgfjabr4hpf","smaller","badger","","","<div style=""font-size:60px;"">+</div>","null","","","","","","",""
"","1473","image-keyboard-response","130","2.0.0","147939","pgfjabr4hpf","smaller","badger","","","stimuli/34-Inongruent.jpg","z","","","","","left","z","true"
"","null","html-keyboard-response","131","2.0.0","148842","pgfjabr4hpf","smaller","badger","","","<p>Correct!</p>","null","","","","","","",""
"","null","html-keyboard-response","132","2.0.0","149845","pgfjabr4hpf","smaller","badger","","","<div style=""font-size:60px;"">+</div>","null","","","","","","",""
"","1539","image-keyboard-response","133","2.0.0","151385","pgfjabr4hpf","smaller","badger","","","stimuli/33-Inongruent.jpg","z","","","","","left","z","true"
"","null","html-keyboard-response","134","2.0.0","152288","pgfjabr4hpf","smaller","badger","","","<p>Correct!</p>","null","","","","","","",""
"","null","html-keyboard-response","135","2.0.0","153291","pgfjabr4hpf","smaller","badger","","","<div style=""font-size:60px;"">+</div>","null","","","","","","",""
"","1375","image-keyboard-response","136","2.0.0","154667","pgfjabr4hpf","smaller","badger","","","stimuli/9-Congruent.jpg","m","","","","","right","m","true"
"","null","html-keyboard-response","137","2.0.0","155570","pgfjabr4hpf","smaller","badger","","","<p>Correct!</p>","null","","","","","","",""
"","null","html-keyboard-response","138","2.0.0","156572","pgfjabr4hpf","smaller","badger","","","<div style=""font-size:60px;"">+</div>","null","","","","","","",""
"","1164","image-keyboard-response","139","2.0.0","157738","pgfjabr4hpf","smaller","badger","","","stimuli/13-Congruent.jpg","m","","","","","right","m","true"
"","null","html-keyboard-response","140","2.0.0","158641","pgfjabr4hpf","smaller","badger","","","<p>Correct!</p>","null","","","","","","",""
"","null","html-keyboard-response","141","2.0.0","159644","pgfjabr4hpf","smaller","badger","","","<div style=""font-size:60px;"">+</div>","null","","","","","","",""
"","877","image-keyboard-response","142","2.0.0","160523","pgfjabr4hpf","smaller","badger","","","stimuli/20-Congruent.jpg","m","","","","","right","m","true"
"","null","html-keyboard-response","143","2.0.0","161426","pgfjabr4hpf","smaller","badger","","","<p>Correct!</p>","null","","","","","","",""
"","null","html-keyboard-response","144","2.0.0","162429","pgfjabr4hpf","smaller","badger","","","<div style=""font-size:60px;"">+</div>","null","","","","","","",""
"","783","image-keyboard-response","145","2.0.0","163214","pgfjabr4hpf","smaller","badger","","","stimuli/18-Congruent.jpg","m","","","","","right","m","true"
"","null","html-keyboard-response","146","2.0.0","164116","pgfjabr4hpf","smaller","badger","","","<p>Correct!</p>","null","","","","","","",""
"","null","html-keyboard-response","147","2.0.0","165118","pgfjabr4hpf","smaller","badger","","","<div style=""font-size:60px;"">+</div>","null","","","","","","",""
"","792","image-keyboard-response","148","2.0.0","165913","pgfjabr4hpf","smaller","badger","","","stimuli/29-Congruent.jpg","m","","","","","right","m","true"
"","null","html-keyboard-response","149","2.0.0","166815","pgfjabr4hpf","smaller","badger","","","<p>Correct!</p>","null","","","","","","",""
"","null","html-keyboard-response","150","2.0.0","167817","pgfjabr4hpf","smaller","badger","","","<div style=""font-size:60px;"">+</div>","null","","","","","","",""
"","687","image-keyboard-response","151","2.0.0","168506","pgfjabr4hpf","smaller","badger","","","stimuli/4-Inongruent.jpg","z","","","","","left","z","true"
"","null","html-keyboard-response","152","2.0.0","169409","pgfjabr4hpf","smaller","badger","","","<p>Correct!</p>","null","","","","","","",""
"","null","html-keyboard-response","153","2.0.0","170411","pgfjabr4hpf","smaller","badger","","","<div style=""font-size:60px;"">+</div>","null","","","","","","",""
"","762","image-keyboard-response","154","2.0.0","171176","pgfjabr4hpf","smaller","badger","","","stimuli/24-Inongruent.jpg","z","","","","","left","z","true"
"","null","html-keyboard-response","155","2.0.0","172078","pgfjabr4hpf","smaller","badger","","","<p>Correct!</p>","null","","","","","","",""
"","null","html-keyboard-response","156","2.0.0","173080","pgfjabr4hpf","smaller","badger","","","<div style=""font-size:60px;"">+</div>","null","","","","","","",""
"","735","image-keyboard-response","157","2.0.0","173817","pgfjabr4hpf","smaller","badger","","","stimuli/10-Congruent.jpg","m","","","","","right","m","true"
"","null","html-keyboard-response","158","2.0.0","174719","pgfjabr4hpf","smaller","badger","","","<p>Correct!</p>","null","","","","","","",""
"","null","html-keyboard-response","159","2.0.0","175722","pgfjabr4hpf","smaller","badger","","","<div style=""font-size:60px;"">+</div>","null","","","","","","",""
"","616","image-keyboard-response","160","2.0.0","176339","pgfjabr4hpf","smaller","badger","","","stimuli/25-Congruent.jpg","m","","","","","right","m","true"
"","null","html-keyboard-response","161","2.0.0","177241","pgfjabr4hpf","smaller","badger","","","<p>Correct!</p>","null","","","","","","",""
"","null","html-keyboard-response","162","2.0.0","178244","pgfjabr4hpf","smaller","badger","","","<div style=""font-size:60px;"">+</div>","null","","","","","","",""
"","661","image-keyboard-response","163","2.0.0","178907","pgfjabr4hpf","smaller","badger","","","stimuli/20-Congruent.jpg","m","","","","","right","m","true"
"","null","html-keyboard-response","164","2.0.0","179809","pgfjabr4hpf","smaller","badger","","","<p>Correct!</p>","null","","","","","","",""
"","null","html-keyboard-response","165","2.0.0","180812","pgfjabr4hpf","smaller","badger","","","<div style=""font-size:60px;"">+</div>","null","","","","","","",""
"","1409","image-keyboard-response","166","2.0.0","182223","pgfjabr4hpf","smaller","badger","","","stimuli/24-Congruent.jpg","m","","","","","right","m","true"
"","null","html-keyboard-response","167","2.0.0","183126","pgfjabr4hpf","smaller","badger","","","<p>Correct!</p>","null","","","","","","",""
"","null","html-keyboard-response","168","2.0.0","184128","pgfjabr4hpf","smaller","badger","","","<div style=""font-size:60px;"">+</div>","null","","","","","","",""
"","1505","image-keyboard-response","169","2.0.0","185636","pgfjabr4hpf","smaller","badger","","","stimuli/3-Inongruent.jpg","z","","","","","left","z","true"
"","null","html-keyboard-response","170","2.0.0","186538","pgfjabr4hpf","smaller","badger","","","<p>Correct!</p>","null","","","","","","",""
"","null","html-keyboard-response","171","2.0.0","187541","pgfjabr4hpf","smaller","badger","","","<div style=""font-size:60px;"">+</div>","null","","","","","","",""
"","848","image-keyboard-response","172","2.0.0","188391","pgfjabr4hpf","smaller","badger","","","stimuli/26-Congruent.jpg","m","","","","","right","m","true"
"","null","html-keyboard-response","173","2.0.0","189294","pgfjabr4hpf","smaller","badger","","","<p>Correct!</p>","null","","","","","","",""
"","null","html-keyboard-response","174","2.0.0","190296","pgfjabr4hpf","smaller","badger","","","<div style=""font-size:60px;"">+</div>","null","","","","","","",""
"","1065","image-keyboard-response","175","2.0.0","191362","pgfjabr4hpf","smaller","badger","","","stimuli/33-Inongruent.jpg","z","","","","","left","z","true"
"","null","html-keyboard-response","176","2.0.0","192264","pgfjabr4hpf","smaller","badger","","","<p>Correct!</p>","null","","","","","","",""
"","null","html-keyboard-response","177","2.0.0","193266","pgfjabr4hpf","smaller","badger","","","<div style=""font-size:60px;"">+</div>","null","","","","","","",""
"","778","image-keyboard-response","178","2.0.0","194047","pgfjabr4hpf","smaller","badger","","","stimuli/34-Congruent.jpg","m","","","","","right","m","true"
"","null","html-keyboard-response","179","2.0.0","194950","pgfjabr4hpf","smaller","badger","","","<p>Correct!</p>","null","","","","","","",""
"","null","html-keyboard-response","180","2.0.0","195953","pgfjabr4hpf","smaller","badger","","","<div style=""font-size:60px;"">+</div>","null","","","","","","",""
"","1073","image-keyboard-response","181","2.0.0","197028","pgfjabr4hpf","smaller","badger","","","stimuli/26-Inongruent.jpg","z","","","","","left","z","true"
"","null","html-keyboard-response","182","2.0.0","197931","pgfjabr4hpf","smaller","badger","","","<p>Correct!</p>","null","","","","","","",""
"","null","html-keyboard-response","183","2.0.0","198933","pgfjabr4hpf","smaller","badger","","","<div style=""font-size:60px;"">+</div>","null","","","","","","",""
"","1866","image-keyboard-response","184","2.0.0","200801","pgfjabr4hpf","smaller","badger","","","stimuli/27-Inongruent.jpg","z","","","","","left","z","true"
"","null","html-keyboard-response","185","2.0.0","201703","pgfjabr4hpf","smaller","badger","","","<p>Correct!</p>","null","","","","","","",""
"","null","html-keyboard-response","186","2.0.0","202706","pgfjabr4hpf","smaller","badger","","","<div style=""font-size:60px;"">+</div>","null","","","","","","",""
"","974","image-keyboard-response","187","2.0.0","203682","pgfjabr4hpf","smaller","badger","","","stimuli/6-Congruent.jpg","m","","","","","right","m","true"
"","null","html-keyboard-response","188","2.0.0","204585","pgfjabr4hpf","smaller","badger","","","<p>Correct!</p>","null","","","","","","",""
"","null","html-keyboard-response","189","2.0.0","205588","pgfjabr4hpf","smaller","badger","","","<div style=""font-size:60px;"">+</div>","null","","","","","","",""
"","1414","image-keyboard-response","190","2.0.0","207004","pgfjabr4hpf","smaller","badger","","","stimuli/30-Inongruent.jpg","z","","","","","left","z","true"
"","null","html-keyboard-response","191","2.0.0","207906","pgfjabr4hpf","smaller","badger","","","<p>Correct!</p>","null","","","","","","",""
"","null","html-keyboard-response","192","2.0.0","208909","pgfjabr4hpf","smaller","badger","","","<div style=""font-size:60px;"">+</div>","null","","","","","","",""
"","1959","image-keyboard-response","193","2.0.0","210870","pgfjabr4hpf","smaller","badger","","","stimuli/27-Congruent.jpg","m","","","","","right","m","true"
"","null","html-keyboard-response","194","2.0.0","211772","pgfjabr4hpf","smaller","badger","","","<p>Correct!</p>","null","","","","","","",""
"","null","html-keyboard-response","195","2.0.0","212775","pgfjabr4hpf","smaller","badger","","","<div style=""font-size:60px;"">+</div>","null","","","","","","",""
"","1560","image-keyboard-response","196","2.0.0","214338","pgfjabr4hpf","smaller","badger","","","stimuli/5-Inongruent.jpg","z","","","","","left","z","true"
"","null","html-keyboard-response","197","2.0.0","215240","pgfjabr4hpf","smaller","badger","","","<p>Correct!</p>","null","","","","","","",""
"","null","html-keyboard-response","198","2.0.0","216242","pgfjabr4hpf","smaller","badger","","","<div style=""font-size:60px;"">+</div>","null","","","","","","",""
"","1242","image-keyboard-response","199","2.0.0","217484","pgfjabr4hpf","smaller","badger","","","stimuli/10-Inongruent.jpg","m","","","","","left","z","false"
"","1463","html-keyboard-response","200","2.0.0","218949","pgfjabr4hpf","smaller","badger","","","<p>Incorrect.</p><p>Remember to select the <b>smaller</b> image.</p><p>Continuing in 5 seconds...</p>","m","","","","","","",""
"","null","html-keyboard-response","201","2.0.0","219951","pgfjabr4hpf","smaller","badger","","","<div style=""font-size:60px;"">+</div>","null","","","","","","",""
"","1085","image-keyboard-response","202","2.0.0","221039","pgfjabr4hpf","smaller","badger","","","stimuli/5-Congruent.jpg","m","","","","","right","m","true"
"","null","html-keyboard-response","203","2.0.0","221941","pgfjabr4hpf","smaller","badger","","","<p>Correct!</p>","null","","","","","","",""
"","null","html-keyboard-response","204","2.0.0","222944","pgfjabr4hpf","smaller","badger","","","<div style=""font-size:60px;"">+</div>","null","","","","","","",""
"","587","image-keyboard-response","205","2.0.0","223534","pgfjabr4hpf","smaller","badger","","","stimuli/32-Inongruent.jpg","z","","","","","left","z","true"
"","null","html-keyboard-response","206","2.0.0","224436","pgfjabr4hpf","smaller","badger","","","<p>Correct!</p>","null","","","","","","",""
"","null","html-keyboard-response","207","2.0.0","225439","pgfjabr4hpf","smaller","badger","","","<div style=""font-size:60px;"">+</div>","null","","","","","","",""
"","811","image-keyboard-response","208","2.0.0","226251","pgfjabr4hpf","smaller","badger","","","stimuli/13-Inongruent.jpg","z","","","","","left","z","true"
"","null","html-keyboard-response","209","2.0.0","227154","pgfjabr4hpf","smaller","badger","","","<p>Correct!</p>","null","","","","","","",""
"","null","html-keyboard-response","210","2.0.0","228157","pgfjabr4hpf","smaller","badger","","","<div style=""font-size:60px;"">+</div>","null","","","","","","",""
"","1286","image-keyboard-response","211","2.0.0","229445","pgfjabr4hpf","smaller","badger","","","stimuli/17-Congruent.jpg","m","","","","","right","m","true"
"","null","html-keyboard-response","212","2.0.0","230347","pgfjabr4hpf","smaller","badger","","","<p>Correct!</p>","null","","","","","","",""
"","null","html-keyboard-response","213","2.0.0","231349","pgfjabr4hpf","smaller","badger","","","<div style=""font-size:60px;"">+</div>","null","","","","","","",""
"","922","image-keyboard-response","214","2.0.0","232273","pgfjabr4hpf","smaller","badger","","","stimuli/36-Inongruent.jpg","z","","","","","left","z","true"
"","null","html-keyboard-response","215","2.0.0","233176","pgfjabr4hpf","smaller","badger","","","<p>Correct!</p>","null","","","","","","",""
"","null","html-keyboard-response","216","2.0.0","234178","pgfjabr4hpf","smaller","badger","","","<div style=""font-size:60px;"">+</div>","null","","","","","","",""
"","967","image-keyboard-response","217","2.0.0","235147","pgfjabr4hpf","smaller","badger","","","stimuli/11-Congruent.jpg","m","","","","","right","m","true"
"","null","html-keyboard-response","218","2.0.0","236050","pgfjabr4hpf","smaller","badger","","","<p>Correct!</p>","null","","","","","","",""
"","null","html-keyboard-response","219","2.0.0","237053","pgfjabr4hpf","smaller","badger","","","<div style=""font-size:60px;"">+</div>","null","","","","","","",""
"","1999","image-keyboard-response","220","2.0.0","239054","pgfjabr4hpf","smaller","badger","","","stimuli/25-Inongruent.jpg","z","","","","","left","z","true"
"","null","html-keyboard-response","221","2.0.0","239957","pgfjabr4hpf","smaller","badger","","","<p>Correct!</p>","null","","","","","","",""
"","null","html-keyboard-response","222","2.0.0","240959","pgfjabr4hpf","smaller","badger","","","<div style=""font-size:60px;"">+</div>","null","","","","","","",""
"","868","image-keyboard-response","223","2.0.0","241829","pgfjabr4hpf","smaller","badger","","","stimuli/32-Inongruent.jpg","z","","","","","left","z","true"
"","null","html-keyboard-response","224","2.0.0","242732","pgfjabr4hpf","smaller","badger","","","<p>Correct!</p>","null","","","","","","",""
"","null","html-keyboard-response","225","2.0.0","243735","pgfjabr4hpf","smaller","badger","","","<div style=""font-size:60px;"">+</div>","null","","","","","","",""
"","636","image-keyboard-response","226","2.0.0","244373","pgfjabr4hpf","smaller","badger","","","stimuli/12-Congruent.jpg","m","","","","","right","m","true"
"","null","html-keyboard-response","227","2.0.0","245275","pgfjabr4hpf","smaller","badger","","","<p>Correct!</p>","null","","","","","","",""
"","null","html-keyboard-response","228","2.0.0","246277","pgfjabr4hpf","smaller","badger","","","<div style=""font-size:60px;"">+</div>","null","","","","","","",""
"","621","image-keyboard-response","229","2.0.0","246898","pgfjabr4hpf","smaller","badger","","","stimuli/30-Congruent.jpg","m","","","","","right","m","true"
"","null","html-keyboard-response","230","2.0.0","247801","pgfjabr4hpf","smaller","badger","","","<p>Correct!</p>","null","","","","","","",""
"","null","html-keyboard-response","231","2.0.0","248804","pgfjabr4hpf","smaller","badger","","","<div style=""font-size:60px;"">+</div>","null","","","","","","",""
"","775","image-keyboard-response","232","2.0.0","249580","pgfjabr4hpf","smaller","badger","","","stimuli/5-Inongruent.jpg","z","","","","","left","z","true"
"","null","html-keyboard-response","233","2.0.0","250483","pgfjabr4hpf","smaller","badger","","","<p>Correct!</p>","null","","","","","","",""
"","null","html-keyboard-response","234","2.0.0","251485","pgfjabr4hpf","smaller","badger","","","<div style=""font-size:60px;"">+</div>","null","","","","","","",""
"","751","image-keyboard-response","235","2.0.0","252237","pgfjabr4hpf","smaller","badger","","","stimuli/23-Congruent.jpg","m","","","","","right","m","true"
"","null","html-keyboard-response","236","2.0.0","253140","pgfjabr4hpf","smaller","badger","","","<p>Correct!</p>","null","","","","","","",""
"","null","html-keyboard-response","237","2.0.0","254143","pgfjabr4hpf","smaller","badger","","","<div style=""font-size:60px;"">+</div>","null","","","","","","",""
"","1068","image-keyboard-response","238","2.0.0","255213","pgfjabr4hpf","smaller","badger","","","stimuli/22-Congruent.jpg","m","","","","","right","m","true"
"","null","html-keyboard-response","239","2.0.0","256116","pgfjabr4hpf","smaller","badger","","","<p>Correct!</p>","null","","","","","","",""
"","null","html-keyboard-response","240","2.0.0","257118","pgfjabr4hpf","smaller","badger","","","<div style=""font-size:60px;"">+</div>","null","","","","","","",""
"","855","image-keyboard-response","241","2.0.0","257974","pgfjabr4hpf","smaller","badger","","","stimuli/22-Congruent.jpg","m","","","","","right","m","true"
"","null","html-keyboard-response","242","2.0.0","258877","pgfjabr4hpf","smaller","badger","","","<p>Correct!</p>","null","","","","","","",""
"","null","html-keyboard-response","243","2.0.0","259879","pgfjabr4hpf","smaller","badger","","","<div style=""font-size:60px;"">+</div>","null","","","","","","",""
"","740","image-keyboard-response","244","2.0.0","260621","pgfjabr4hpf","smaller","badger","","","stimuli/5-Congruent.jpg","m","","","","","right","m","true"
"","null","html-keyboard-response","245","2.0.0","261524","pgfjabr4hpf","smaller","badger","","","<p>Correct!</p>","null","","","","","","",""
"","null","html-keyboard-response","246","2.0.0","262527","pgfjabr4hpf","smaller","badger","","","<div style=""font-size:60px;"">+</div>","null","","","","","","",""
"","954","image-keyboard-response","247","2.0.0","263483","pgfjabr4hpf","smaller","badger","","","stimuli/11-Inongruent.jpg","z","","","","","left","z","true"
"","null","html-keyboard-response","248","2.0.0","264385","pgfjabr4hpf","smaller","badger","","","<p>Correct!</p>","null","","","","","","",""
"","null","html-keyboard-response","249","2.0.0","265388","pgfjabr4hpf","smaller","badger","","","<div style=""font-size:60px;"">+</div>","null","","","","","","",""
"","906","image-keyboard-response","250","2.0.0","266296","pgfjabr4hpf","smaller","badger","","","stimuli/17-Inongruent.jpg","z","","","","","left","z","true"
"","null","html-keyboard-response","251","2.0.0","267198","pgfjabr4hpf","smaller","badger","","","<p>Correct!</p>","null","","","","","","",""
"","null","html-keyboard-response","252","2.0.0","268200","pgfjabr4hpf","smaller","badger","","","<div style=""font-size:60px;"">+</div>","null","","","","","","",""
"","688","image-keyboard-response","253","2.0.0","268890","pgfjabr4hpf","smaller","badger","","","stimuli/23-Inongruent.jpg","z","","","","","left","z","true"
"","null","html-keyboard-response","254","2.0.0","269792","pgfjabr4hpf","smaller","badger","","","<p>Correct!</p>","null","","","","","","",""
"","null","html-keyboard-response","255","2.0.0","270795","pgfjabr4hpf","smaller","badger","","","<div style=""font-size:60px;"">+</div>","null","","","","","","",""
"","980","image-keyboard-response","256","2.0.0","271778","pgfjabr4hpf","smaller","badger","","","stimuli/31-Congruent.jpg","m","","","","","right","m","true"
"","null","html-keyboard-response","257","2.0.0","272680","pgfjabr4hpf","smaller","badger","","","<p>Correct!</p>","null","","","","","","",""
"","null","html-keyboard-response","258","2.0.0","273683","pgfjabr4hpf","smaller","badger","","","<div style=""font-size:60px;"">+</div>","null","","","","","","",""
"","1198","image-keyboard-response","259","2.0.0","274882","pgfjabr4hpf","smaller","badger","","","stimuli/26-Congruent.jpg","m","","","","","right","m","true"
"","null","html-keyboard-response","260","2.0.0","275785","pgfjabr4hpf","smaller","badger","","","<p>Correct!</p>","null","","","","","","",""
"","null","html-keyboard-response","261","2.0.0","276788","pgfjabr4hpf","smaller","badger","","","<div style=""font-size:60px;"">+</div>","null","","","","","","",""
"","4437","image-keyboard-response","262","2.0.0","281227","pgfjabr4hpf","smaller","badger","","","stimuli/20-Inongruent.jpg","z","","","","","left","z","true"
"","null","html-keyboard-response","263","2.0.0","282128","pgfjabr4hpf","smaller","badger","","","<p>Correct!</p>","null","","","","","","",""
"","null","html-keyboard-response","264","2.0.0","283131","pgfjabr4hpf","smaller","badger","","","<div style=""font-size:60px;"">+</div>","null","","","","","","",""
"","1282","image-keyboard-response","265","2.0.0","284415","pgfjabr4hpf","smaller","badger","","","stimuli/29-Congruent.jpg","m","","","","","right","m","true"
"","null","html-keyboard-response","266","2.0.0","285316","pgfjabr4hpf","smaller","badger","","","<p>Correct!</p>","null","","","","","","",""
"","null","html-keyboard-response","267","2.0.0","286319","pgfjabr4hpf","smaller","badger","","","<div style=""font-size:60px;"">+</div>","null","","","","","","",""
"","1389","image-keyboard-response","268","2.0.0","287709","pgfjabr4hpf","smaller","badger","","","stimuli/6-Inongruent.jpg","z","","","","","left","z","true"
"","null","html-keyboard-response","269","2.0.0","288611","pgfjabr4hpf","smaller","badger","","","<p>Correct!</p>","null","","","","","","",""
"","null","html-keyboard-response","270","2.0.0","289614","pgfjabr4hpf","smaller","badger","","","<div style=""font-size:60px;"">+</div>","null","","","","","","",""
"","1015","image-keyboard-response","271","2.0.0","290629","pgfjabr4hpf","smaller","badger","","","stimuli/8-Congruent.jpg","m","","","","","right","m","true"
"","null","html-keyboard-response","272","2.0.0","291532","pgfjabr4hpf","smaller","badger","","","<p>Correct!</p>","null","","","","","","",""
"","null","html-keyboard-response","273","2.0.0","292534","pgfjabr4hpf","smaller","badger","","","<div style=""font-size:60px;"">+</div>","null","","","","","","",""
"","17163","image-keyboard-response","274","2.0.0","309698","pgfjabr4hpf","smaller","badger","","","stimuli/4-Inongruent.jpg","z","","","","","left","z","true"
"","null","html-keyboard-response","275","2.0.0","310601","pgfjabr4hpf","smaller","badger","","","<p>Correct!</p>","null","","","","","","",""
"","null","html-keyboard-response","276","2.0.0","311603","pgfjabr4hpf","smaller","badger","","","<div style=""font-size:60px;"">+</div>","null","","","","","","",""
"","1336","image-keyboard-response","277","2.0.0","312941","pgfjabr4hpf","smaller","badger","","","stimuli/10-Inongruent.jpg","z","","","","","left","z","true"
"","null","html-keyboard-response","278","2.0.0","313843","pgfjabr4hpf","smaller","badger","","","<p>Correct!</p>","null","","","","","","",""
"","null","html-keyboard-response","279","2.0.0","314845","pgfjabr4hpf","smaller","badger","","","<div style=""font-size:60px;"">+</div>","null","","","","","","",""
"","1143","image-keyboard-response","280","2.0.0","315990","pgfjabr4hpf","smaller","badger","","","stimuli/24-Inongruent.jpg","z","","","","","left","z","true"
"","null","html-keyboard-response","281","2.0.0","316893","pgfjabr4hpf","smaller","badger","","","<p>Correct!</p>","null","","","","","","",""
"","null","html-keyboard-response","282","2.0.0","317895","pgfjabr4hpf","smaller","badger","","","<div style=""font-size:60px;"">+</div>","null","","","","","","",""
"","901","image-keyboard-response","283","2.0.0","318798","pgfjabr4hpf","smaller","badger","","","stimuli/33-Congruent.jpg","m","","","","","right","m","true"
"","null","html-keyboard-response","284","2.0.0","319701","pgfjabr4hpf","smaller","badger","","","<p>Correct!</p>","null","","","","","","",""
"","null","html-keyboard-response","285","2.0.0","320704","pgfjabr4hpf","smaller","badger","","","<div style=""font-size:60px;"">+</div>","null","","","","","","",""
"","631","image-keyboard-response","286","2.0.0","321336","pgfjabr4hpf","smaller","badger","","","stimuli/7-Congruent.jpg","m","","","","","right","m","true"
"","null","html-keyboard-response","287","2.0.0","322238","pgfjabr4hpf","smaller","badger","","","<p>Correct!</p>","null","","","","","","",""
"","null","html-keyboard-response","288","2.0.0","323241","pgfjabr4hpf","smaller","badger","","","<div style=""font-size:60px;"">+</div>","null","","","","","","",""
"","1012","image-keyboard-response","289","2.0.0","324255","pgfjabr4hpf","smaller","badger","","","stimuli/28-Inongruent.jpg","z","","","","","left","z","true"
"","null","html-keyboard-response","290","2.0.0","325157","pgfjabr4hpf","smaller","badger","","","<p>Correct!</p>","null","","","","","","",""
"","null","html-keyboard-response","291","2.0.0","326160","pgfjabr4hpf","smaller","badger","","","<div style=""font-size:60px;"">+</div>","null","","","","","","",""
"","1099","image-keyboard-response","292","2.0.0","327261","pgfjabr4hpf","smaller","badger","","","stimuli/28-Congruent.jpg","m","","","","","right","m","true"
"","null","html-keyboard-response","293","2.0.0","328163","pgfjabr4hpf","smaller","badger","","","<p>Correct!</p>","null","","","","","","",""
"","null","html-keyboard-response","294","2.0.0","329165","pgfjabr4hpf","smaller","badger","","","<div style=""font-size:60px;"">+</div>","null","","","","","","",""
"","703","image-keyboard-response","295","2.0.0","329870","pgfjabr4hpf","smaller","badger","","","stimuli/32-Congruent.jpg","m","","","","","right","m","true"
"","null","html-keyboard-response","296","2.0.0","330772","pgfjabr4hpf","smaller","badger","","","<p>Correct!</p>","null","","","","","","",""
"","null","html-keyboard-response","297","2.0.0","331775","pgfjabr4hpf","smaller","badger","","","<div style=""font-size:60px;"">+</div>","null","","","","","","",""
"","1414","image-keyboard-response","298","2.0.0","333192","pgfjabr4hpf","smaller","badger","","","stimuli/31-Inongruent.jpg","z","","","","","left","z","true"
"","null","html-keyboard-response","299","2.0.0","334094","pgfjabr4hpf","smaller","badger","","","<p>Correct!</p>","null","","","","","","",""
"","null","html-keyboard-response","300","2.0.0","335096","pgfjabr4hpf","smaller","badger","","","<div style=""font-size:60px;"">+</div>","null","","","","","","",""
"","838","image-keyboard-response","301","2.0.0","335936","pgfjabr4hpf","smaller","badger","","","stimuli/18-Congruent.jpg","m","","","","","right","m","true"
"","null","html-keyboard-response","302","2.0.0","336839","pgfjabr4hpf","smaller","badger","","","<p>Correct!</p>","null","","","","","","",""
"","null","html-keyboard-response","303","2.0.0","337841","pgfjabr4hpf","smaller","badger","","","<div style=""font-size:60px;"">+</div>","null","","","","","","",""
"","643","image-keyboard-response","304","2.0.0","338486","pgfjabr4hpf","smaller","badger","","","stimuli/23-Inongruent.jpg","z","","","","","left","z","true"
"","null","html-keyboard-response","305","2.0.0","339388","pgfjabr4hpf","smaller","badger","","","<p>Correct!</p>","null","","","","","","",""
"","null","html-keyboard-response","306","2.0.0","340392","pgfjabr4hpf","smaller","badger","","","<div style=""font-size:60px;"">+</div>","null","","","","","","",""
"","697","image-keyboard-response","307","2.0.0","341091","pgfjabr4hpf","smaller","badger","","","stimuli/9-Inongruent.jpg","z","","","","","left","z","true"
"","null","html-keyboard-response","308","2.0.0","341994","pgfjabr4hpf","smaller","badger","","","<p>Correct!</p>","null","","","","","","",""
"","null","html-keyboard-response","309","2.0.0","342996","pgfjabr4hpf","smaller","badger","","","<div style=""font-size:60px;"">+</div>","null","","","","","","",""
"","1200","image-keyboard-response","310","2.0.0","344197","pgfjabr4hpf","smaller","badger","","","stimuli/2-Inongruent.jpg","z","","","","","left","z","true"
"","null","html-keyboard-response","311","2.0.0","345099","pgfjabr4hpf","smaller","badger","","","<p>Correct!</p>","null","","","","","","",""
"","null","html-keyboard-response","312","2.0.0","346101","pgfjabr4hpf","smaller","badger","","","<div style=""font-size:60px;"">+</div>","null","","","","","","",""
"","1587","image-keyboard-response","313","2.0.0","347689","pgfjabr4hpf","smaller","badger","","","stimuli/36-Congruent.jpg","m","","","","","right","m","true"
"","null","html-keyboard-response","314","2.0.0","348592","pgfjabr4hpf","smaller","badger","","","<p>Correct!</p>","null","","","","","","",""
"","null","html-keyboard-response","315","2.0.0","349595","pgfjabr4hpf","smaller","badger","","","<div style=""font-size:60px;"">+</div>","null","","","","","","",""
"","949","image-keyboard-response","316","2.0.0","350545","pgfjabr4hpf","smaller","badger","","","stimuli/6-Congruent.jpg","m","","","","","right","m","true"
"","null","html-keyboard-response","317","2.0.0","351448","pgfjabr4hpf","smaller","badger","","","<p>Correct!</p>","null","","","","","","",""
"","null","html-keyboard-response","318","2.0.0","352451","pgfjabr4hpf","smaller","badger","","","<div style=""font-size:60px;"">+</div>","null","","","","","","",""
"","706","image-keyboard-response","319","2.0.0","353158","pgfjabr4hpf","smaller","badger","","","stimuli/7-Inongruent.jpg","z","","","","","left","z","true"
"","null","html-keyboard-response","320","2.0.0","354060","pgfjabr4hpf","smaller","badger","","","<p>Correct!</p>","null","","","","","","",""
"","null","html-keyboard-response","321","2.0.0","355063","pgfjabr4hpf","smaller","badger","","","<div style=""font-size:60px;"">+</div>","null","","","","","","",""
"","2464","image-keyboard-response","322","2.0.0","357530","pgfjabr4hpf","smaller","badger","","","stimuli/27-Congruent.jpg","m","","","","","right","m","true"
"","null","html-keyboard-response","323","2.0.0","358432","pgfjabr4hpf","smaller","badger","","","<p>Correct!</p>","null","","","","","","",""
"","null","html-keyboard-response","324","2.0.0","359435","pgfjabr4hpf","smaller","badger","","","<div style=""font-size:60px;"">+</div>","null","","","","","","",""
"","1154","image-keyboard-response","325","2.0.0","360591","pgfjabr4hpf","smaller","badger","","","stimuli/4-Congruent.jpg","m","","","","","right","m","true"
"","null","html-keyboard-response","326","2.0.0","361493","pgfjabr4hpf","smaller","badger","","","<p>Correct!</p>","null","","","","","","",""
"","null","html-keyboard-response","327","2.0.0","362496","pgfjabr4hpf","smaller","badger","","","<div style=""font-size:60px;"">+</div>","null","","","","","","",""
"","695","image-keyboard-response","328","2.0.0","363193","pgfjabr4hpf","smaller","badger","","","stimuli/21-Congruent.jpg","m","","","","","right","m","true"
"","null","html-keyboard-response","329","2.0.0","364095","pgfjabr4hpf","smaller","badger","","","<p>Correct!</p>","null","","","","","","",""
"","null","html-keyboard-response","330","2.0.0","365098","pgfjabr4hpf","smaller","badger","","","<div style=""font-size:60px;"">+</div>","null","","","","","","",""
"","853","image-keyboard-response","331","2.0.0","365953","pgfjabr4hpf","smaller","badger","","","stimuli/19-Inongruent.jpg","z","","","","","left","z","true"
"","null","html-keyboard-response","332","2.0.0","366856","pgfjabr4hpf","smaller","badger","","","<p>Correct!</p>","null","","","","","","",""
"","null","html-keyboard-response","333","2.0.0","367859","pgfjabr4hpf","smaller","badger","","","<div style=""font-size:60px;"">+</div>","null","","","","","","",""
"","727","image-keyboard-response","334","2.0.0","368587","pgfjabr4hpf","smaller","badger","","","stimuli/23-Congruent.jpg","m","","","","","right","m","true"
"","null","html-keyboard-response","335","2.0.0","369490","pgfjabr4hpf","smaller","badger","","","<p>Correct!</p>","null","","","","","","",""
"","null","html-keyboard-response","336","2.0.0","370492","pgfjabr4hpf","smaller","badger","","","<div style=""font-size:60px;"">+</div>","null","","","","","","",""
"","620","image-keyboard-response","337","2.0.0","371114","pgfjabr4hpf","smaller","badger","","","stimuli/12-Congruent.jpg","m","","","","","right","m","true"
"","null","html-keyboard-response","338","2.0.0","372018","pgfjabr4hpf","smaller","badger","","","<p>Correct!</p>","null","","","","","","",""
"","null","html-keyboard-response","339","2.0.0","373021","pgfjabr4hpf","smaller","badger","","","<div style=""font-size:60px;"">+</div>","null","","","","","","",""
"","817","image-keyboard-response","340","2.0.0","373839","pgfjabr4hpf","smaller","badger","","","stimuli/7-Congruent.jpg","m","","","","","right","m","true"
"","null","html-keyboard-response","341","2.0.0","374741","pgfjabr4hpf","smaller","badger","","","<p>Correct!</p>","null","","","","","","",""
"","null","html-keyboard-response","342","2.0.0","375744","pgfjabr4hpf","smaller","badger","","","<div style=""font-size:60px;"">+</div>","null","","","","","","",""
"","1649","image-keyboard-response","343","2.0.0","377395","pgfjabr4hpf","smaller","badger","","","stimuli/1-Congruent.jpg","m","","","","","right","m","true"
"","null","html-keyboard-response","344","2.0.0","378298","pgfjabr4hpf","smaller","badger","","","<p>Correct!</p>","null","","","","","","",""
"","null","html-keyboard-response","345","2.0.0","379300","pgfjabr4hpf","smaller","badger","","","<div style=""font-size:60px;"">+</div>","null","","","","","","",""
"","713","image-keyboard-response","346","2.0.0","380014","pgfjabr4hpf","smaller","badger","","","stimuli/21-Congruent.jpg","m","","","","","right","m","true"
"","null","html-keyboard-response","347","2.0.0","380916","pgfjabr4hpf","smaller","badger","","","<p>Correct!</p>","null","","","","","","",""
"","null","html-keyboard-response","348","2.0.0","381919","pgfjabr4hpf","smaller","badger","","","<div style=""font-size:60px;"">+</div>","null","","","","","","",""
"","688","image-keyboard-response","349","2.0.0","382608","pgfjabr4hpf","smaller","badger","","","stimuli/32-Congruent.jpg","m","","","","","right","m","true"
"","null","html-keyboard-response","350","2.0.0","383511","pgfjabr4hpf","smaller","badger","","","<p>Correct!</p>","null","","","","","","",""
"","null","html-keyboard-response","351","2.0.0","384514","pgfjabr4hpf","smaller","badger","","","<div style=""font-size:60px;"">+</div>","null","","","","","","",""
"","850","image-keyboard-response","352","2.0.0","385366","pgfjabr4hpf","smaller","badger","","","stimuli/15-Congruent.jpg","m","","","","","right","m","true"
"","null","html-keyboard-response","353","2.0.0","386269","pgfjabr4hpf","smaller","badger","","","<p>Correct!</p>","null","","","","","","",""
"","null","html-keyboard-response","354","2.0.0","387272","pgfjabr4hpf","smaller","badger","","","<div style=""font-size:60px;"">+</div>","null","","","","","","",""
"","699","image-keyboard-response","355","2.0.0","387973","pgfjabr4hpf","smaller","badger","","","stimuli/36-Congruent.jpg","m","","","","","right","m","true"
"","null","html-keyboard-response","356","2.0.0","388875","pgfjabr4hpf","smaller","badger","","","<p>Correct!</p>","null","","","","","","",""
"","null","html-keyboard-response","357","2.0.0","389878","pgfjabr4hpf","smaller","badger","","","<div style=""font-size:60px;"">+</div>","null","","","","","","",""
"","1618","image-keyboard-response","358","2.0.0","391498","pgfjabr4hpf","smaller","badger","","","stimuli/34-Inongruent.jpg","z","","","","","left","z","true"
"","null","html-keyboard-response","359","2.0.0","392400","pgfjabr4hpf","smaller","badger","","","<p>Correct!</p>","null","","","","","","",""
"","null","html-keyboard-response","360","2.0.0","393403","pgfjabr4hpf","smaller","badger","","","<div style=""font-size:60px;"">+</div>","null","","","","","","",""
"","986","image-keyboard-response","361","2.0.0","394391","pgfjabr4hpf","smaller","badger","","","stimuli/8-Inongruent.jpg","z","","","","","left","z","true"
"","null","html-keyboard-response","362","2.0.0","395292","pgfjabr4hpf","smaller","badger","","","<p>Correct!</p>","null","","","","","","",""
"","null","html-keyboard-response","363","2.0.0","396295","pgfjabr4hpf","smaller","badger","","","<div style=""font-size:60px;"">+</div>","null","","","","","","",""
"","3527","image-keyboard-response","364","2.0.0","399824","pgfjabr4hpf","smaller","badger","","","stimuli/21-Inongruent.jpg","z","","","","","left","z","true"
"","null","html-keyboard-response","365","2.0.0","400727","pgfjabr4hpf","smaller","badger","","","<p>Correct!</p>","null","","","","","","",""
"","null","html-keyboard-response","366","2.0.0","401730","pgfjabr4hpf","smaller","badger","","","<div style=""font-size:60px;"">+</div>","null","","","","","","",""
"","2798","image-keyboard-response","367","2.0.0","404529","pgfjabr4hpf","smaller","badger","","","stimuli/22-Inongruent.jpg","z","","","","","left","z","true"
"","null","html-keyboard-response","368","2.0.0","405431","pgfjabr4hpf","smaller","badger","","","<p>Correct!</p>","null","","","","","","",""
"","null","html-keyboard-response","369","2.0.0","406434","pgfjabr4hpf","smaller","badger","","","<div style=""font-size:60px;"">+</div>","null","","","","","","",""
"","1417","image-keyboard-response","370","2.0.0","407854","pgfjabr4hpf","smaller","badger","","","stimuli/8-Congruent.jpg","m","","","","","right","m","true"
"","null","html-keyboard-response","371","2.0.0","408756","pgfjabr4hpf","smaller","badger","","","<p>Correct!</p>","null","","","","","","",""
"","null","html-keyboard-response","372","2.0.0","409760","pgfjabr4hpf","smaller","badger","","","<div style=""font-size:60px;"">+</div>","null","","","","","","",""
"","765","image-keyboard-response","373","2.0.0","410527","pgfjabr4hpf","smaller","badger","","","stimuli/14-Congruent.jpg","m","","","","","right","m","true"
"","null","html-keyboard-response","374","2.0.0","411429","pgfjabr4hpf","smaller","badger","","","<p>Correct!</p>","null","","","","","","",""
"","null","html-keyboard-response","375","2.0.0","412432","pgfjabr4hpf","smaller","badger","","","<div style=""font-size:60px;"">+</div>","null","","","","","","",""
"","1490","image-keyboard-response","376","2.0.0","413924","pgfjabr4hpf","smaller","badger","","","stimuli/16-Inongruent.jpg","z","","","","","left","z","true"
"","null","html-keyboard-response","377","2.0.0","414826","pgfjabr4hpf","smaller","badger","","","<p>Correct!</p>","null","","","","","","",""
"","null","html-keyboard-response","378","2.0.0","415829","pgfjabr4hpf","smaller","badger","","","<div style=""font-size:60px;"">+</div>","null","","","","","","",""
"","959","image-keyboard-response","379","2.0.0","416790","pgfjabr4hpf","smaller","badger","","","stimuli/28-Inongruent.jpg","z","","","","","left","z","true"
"","null","html-keyboard-response","380","2.0.0","417692","pgfjabr4hpf","smaller","badger","","","<p>Correct!</p>","null","","","","","","",""
"","null","html-keyboard-response","381","2.0.0","418695","pgfjabr4hpf","smaller","badger","","","<div style=""font-size:60px;"">+</div>","null","","","","","","",""
"","831","image-keyboard-response","382","2.0.0","419527","pgfjabr4hpf","smaller","badger","","","stimuli/24-Congruent.jpg","m","","","","","right","m","true"
"","null","html-keyboard-response","383","2.0.0","420430","pgfjabr4hpf","smaller","badger","","","<p>Correct!</p>","null","","","","","","",""
"","null","html-keyboard-response","384","2.0.0","421433","pgfjabr4hpf","smaller","badger","","","<div style=""font-size:60px;"">+</div>","null","","","","","","",""
"","1233","image-keyboard-response","385","2.0.0","422667","pgfjabr4hpf","smaller","badger","","","stimuli/16-Congruent.jpg","m","","","","","right","m","true"
"","null","html-keyboard-response","386","2.0.0","423569","pgfjabr4hpf","smaller","badger","","","<p>Correct!</p>","null","","","","","","",""
"","null","html-keyboard-response","387","2.0.0","424572","pgfjabr4hpf","smaller","badger","","","<div style=""font-size:60px;"">+</div>","null","","","","","","",""
"","793","image-keyboard-response","388","2.0.0","425367","pgfjabr4hpf","smaller","badger","","","stimuli/11-Inongruent.jpg","z","","","","","left","z","true"
"","null","html-keyboard-response","389","2.0.0","426270","pgfjabr4hpf","smaller","badger","","","<p>Correct!</p>","null","","","","","","",""
"","null","html-keyboard-response","390","2.0.0","427272","pgfjabr4hpf","smaller","badger","","","<div style=""font-size:60px;"">+</div>","null","","","","","","",""
"","1565","image-keyboard-response","391","2.0.0","428839","pgfjabr4hpf","smaller","badger","","","stimuli/28-Congruent.jpg","m","","","","","right","m","true"
"","null","html-keyboard-response","392","2.0.0","429741","pgfjabr4hpf","smaller","badger","","","<p>Correct!</p>","null","","","","","","",""
"","null","html-keyboard-response","393","2.0.0","430744","pgfjabr4hpf","smaller","badger","","","<div style=""font-size:60px;"">+</div>","null","","","","","","",""
"","889","image-keyboard-response","394","2.0.0","431635","pgfjabr4hpf","smaller","badger","","","stimuli/3-Congruent.jpg","m","","","","","right","m","true"
"","null","html-keyboard-response","395","2.0.0","432537","pgfjabr4hpf","smaller","badger","","","<p>Correct!</p>","null","","","","","","",""
"","null","html-keyboard-response","396","2.0.0","433541","pgfjabr4hpf","smaller","badger","","","<div style=""font-size:60px;"">+</div>","null","","","","","","",""
"","1548","image-keyboard-response","397","2.0.0","435091","pgfjabr4hpf","smaller","badger","","","stimuli/14-Inongruent.jpg","z","","","","","left","z","true"
"","null","html-keyboard-response","398","2.0.0","435993","pgfjabr4hpf","smaller","badger","","","<p>Correct!</p>","null","","","","","","",""
"","null","html-keyboard-response","399","2.0.0","436996","pgfjabr4hpf","smaller","badger","","","<div style=""font-size:60px;"">+</div>","null","","","","","","",""
"","1401","image-keyboard-response","400","2.0.0","438399","pgfjabr4hpf","smaller","badger","","","stimuli/8-Inongruent.jpg","z","","","","","left","z","true"
"","null","html-keyboard-response","401","2.0.0","439300","pgfjabr4hpf","smaller","badger","","","<p>Correct!</p>","null","","","","","","",""
"","null","html-keyboard-response","402","2.0.0","440303","pgfjabr4hpf","smaller","badger","","","<div style=""font-size:60px;"">+</div>","null","","","","","","",""
"","716","image-keyboard-response","403","2.0.0","441020","pgfjabr4hpf","smaller","badger","","","stimuli/16-Inongruent.jpg","z","","","","","left","z","true"
"","null","html-keyboard-response","404","2.0.0","441923","pgfjabr4hpf","smaller","badger","","","<p>Correct!</p>","null","","","","","","",""
"","null","html-keyboard-response","405","2.0.0","442926","pgfjabr4hpf","smaller","badger","","","<div style=""font-size:60px;"">+</div>","null","","","","","","",""
"","721","image-keyboard-response","406","2.0.0","443649","pgfjabr4hpf","smaller","badger","","","stimuli/7-Inongruent.jpg","z","","","","","left","z","true"
"","null","html-keyboard-response","407","2.0.0","444551","pgfjabr4hpf","smaller","badger","","","<p>Correct!</p>","null","","","","","","",""
"","null","html-keyboard-response","408","2.0.0","445554","pgfjabr4hpf","smaller","badger","","","<div style=""font-size:60px;"">+</div>","null","","","","","","",""
"","673","image-keyboard-response","409","2.0.0","446229","pgfjabr4hpf","smaller","badger","","","stimuli/15-Congruent.jpg","m","","","","","right","m","true"
"","null","html-keyboard-response","410","2.0.0","447132","pgfjabr4hpf","smaller","badger","","","<p>Correct!</p>","null","","","","","","",""
"","null","html-keyboard-response","411","2.0.0","448135","pgfjabr4hpf","smaller","badger","","","<div style=""font-size:60px;"">+</div>","null","","","","","","",""
"","1508","image-keyboard-response","412","2.0.0","449645","pgfjabr4hpf","smaller","badger","","","stimuli/29-Inongruent.jpg","z","","","","","left","z","true"
"","null","html-keyboard-response","413","2.0.0","450548","pgfjabr4hpf","smaller","badger","","","<p>Correct!</p>","null","","","","","","",""
"","null","html-keyboard-response","414","2.0.0","451550","pgfjabr4hpf","smaller","badger","","","<div style=""font-size:60px;"">+</div>","null","","","","","","",""
"","1429","image-keyboard-response","415","2.0.0","452982","pgfjabr4hpf","smaller","badger","","","stimuli/18-Inongruent.jpg","z","","","","","left","z","true"
"","null","html-keyboard-response","416","2.0.0","453884","pgfjabr4hpf","smaller","badger","","","<p>Correct!</p>","null","","","","","","",""
"","null","html-keyboard-response","417","2.0.0","454886","pgfjabr4hpf","smaller","badger","","","<div style=""font-size:60px;"">+</div>","null","","","","","","",""
"","1160","image-keyboard-response","418","2.0.0","456049","pgfjabr4hpf","smaller","badger","","","stimuli/35-Congruent.jpg","m","","","","","right","m","true"
"","null","html-keyboard-response","419","2.0.0","456951","pgfjabr4hpf","smaller","badger","","","<p>Correct!</p>","null","","","","","","",""
"","476","html-keyboard-response","420","2.0.0","457429","pgfjabr4hpf","smaller","badger","","","<div style=""font-size:60px;"">+</div>"," ","","","","","","",""
"","1535","image-keyboard-response","421","2.0.0","458965","pgfjabr4hpf","smaller","badger","","","stimuli/12-Inongruent.jpg","z","","","","","left","z","true"
"","null","html-keyboard-response","422","2.0.0","459868","pgfjabr4hpf","smaller","badger","","","<p>Correct!</p>","null","","","","","","",""
"","930","html-keyboard-response","423","2.0.0","460799","pgfjabr4hpf","smaller","badger","","","<div style=""font-size:60px;"">+</div>"," ","","","","","","",""
"","982","image-keyboard-response","424","2.0.0","461782","pgfjabr4hpf","smaller","badger","","","stimuli/19-Congruent.jpg","m","","","","","right","m","true"
"","null","html-keyboard-response","425","2.0.0","462685","pgfjabr4hpf","smaller","badger","","","<p>Correct!</p>","null","","","","","","",""
"","null","html-keyboard-response","426","2.0.0","463688","pgfjabr4hpf","smaller","badger","","","<div style=""font-size:60px;"">+</div>","null","","","","","","",""
"","966","image-keyboard-response","427","2.0.0","464656","pgfjabr4hpf","smaller","badger","","","stimuli/2-Congruent.jpg","m","","","","","right","m","true"
"","null","html-keyboard-response","428","2.0.0","465558","pgfjabr4hpf","smaller","badger","","","<p>Correct!</p>","null","","","","","","",""
"","null","html-keyboard-response","429","2.0.0","466561","pgfjabr4hpf","smaller","badger","","","<div style=""font-size:60px;"">+</div>","null","","","","","","",""
"","1167","image-keyboard-response","430","2.0.0","467730","pgfjabr4hpf","smaller","badger","","","stimuli/17-Inongruent.jpg","z","","","","","left","z","true"
"","null","html-keyboard-response","431","2.0.0","468633","pgfjabr4hpf","smaller","badger","","","<p>Correct!</p>","null","","","","","","",""
"","null","html-keyboard-response","432","2.0.0","469636","pgfjabr4hpf","smaller","badger","","","<div style=""font-size:60px;"">+</div>","null","","","","","","",""
"","1416","image-keyboard-response","433","2.0.0","471053","pgfjabr4hpf","smaller","badger","","","stimuli/4-Congruent.jpg","m","","","","","right","m","true"
"","null","html-keyboard-response","434","2.0.0","471956","pgfjabr4hpf","smaller","badger","","","<p>Correct!</p>","null","","","","","","",""
"","null","html-keyboard-response","435","2.0.0","472959","pgfjabr4hpf","smaller","badger","","","<div style=""font-size:60px;"">+</div>","null","","","","","","",""
"","1055","image-keyboard-response","436","2.0.0","474016","pgfjabr4hpf","smaller","badger","","","stimuli/22-Inongruent.jpg","z","","","","","left","z","true"
"","null","html-keyboard-response","437","2.0.0","474919","pgfjabr4hpf","smaller","badger","","","<p>Correct!</p>","null","","","","","","",""
"","2583","html-keyboard-response","438","2.0.0","477505","pgfjabr4hpf","smaller","badger","","","<p>You have completed the experiment!</p>
              <p>Your accuracy was: 98.61111111111111%.</p>
              <p>Thank you for participating.</p>
              <p>Press any key to continue.</p>"," ","","","","","","",""
"","17055","survey-text","439","2.0.0","494564","pgfjabr4hpf","smaller","badger","","","","{""participant_thoughts"":""""}","","","","","","",""
"","2347","survey-text","440","2.0.0","496915","pgfjabr4hpf","smaller","badger","","","","{""participant_difficulties"":""""}","","","","","","",""
"","992","html-keyboard-response","441","2.0.0","497907","pgfjabr4hpf","smaller","badger","","","<p>The purpose of this experiment is to determine if the real world size of a familiar object is automatically processed when viewed.</p><p>Thank you for participating!</p>","Enter","","","","","","",""
