"success","rt","trial_type","trial_index","plugin_version","time_elapsed","random_id","condition","participant","participant_thoughts","participant_difficulties","stimulus","response","timeout","failed_images","failed_audio","failed_video","correct_response","correct_response_key","correct"
"true","2466","fullscreen","0","null","3471","phpbsvpjdr8","bigger","shrew123","to test reflexes","no","","","","","","","","",""
"","21733","html-keyboard-response","1","2.0.0","25206","phpbsvpjdr8","bigger","shrew123","to test reflexes","no","Welcome to the Size Stroop experiment. Press any key to begin."," ","","","","","","",""
"","null","html-keyboard-response","2","2.0.0","26208","phpbsvpjdr8","bigger","shrew123","to test reflexes","no","This trial will be in fullscreen mode.","null","","","","","","",""
"","18621","survey-text","3","2.0.0","44834","phpbsvpjdr8","bigger","shrew123","to test reflexes","no","","{""participant_id"":""shrew123""}","","","","","","",""
"","12953","html-keyboard-response","4","2.0.0","57788","phpbsvpjdr8","bigger","shrew123","to test reflexes","no","<p>In this experiment, two images will appear on the screen. Identify the <strong>larger</strong> images.</p>
              <p>If the image on the left is larger, press ""z"". If the image on the right is larger, press ""m"".</p>
              <p>Press any key to begin.</p>","m","","","","","","",""
"true","","preload","5","2.0.0","61857","phpbsvpjdr8","bigger","shrew123","to test reflexes","no","","","false","[]","[]","[]","","",""
"","null","html-keyboard-response","6","2.0.0","62861","phpbsvpjdr8","bigger","shrew123","to test reflexes","no","<div style=""font-size:60px;"">+</div>","null","","","","","","",""
"","1294","image-keyboard-response","7","2.0.0","64160","phpbsvpjdr8","bigger","shrew123","to test reflexes","no","stimuli/4-Inongruent.jpg","m","","","","","right","m","true"
"","null","html-keyboard-response","8","2.0.0","65064","phpbsvpjdr8","bigger","shrew123","to test reflexes","no","<p>Correct!</p>","null","","","","","","",""
"","null","html-keyboard-response","9","2.0.0","66068","phpbsvpjdr8","bigger","shrew123","to test reflexes","no","<div style=""font-size:60px;"">+</div>","null","","","","","","",""
"","877","image-keyboard-response","10","2.0.0","66947","phpbsvpjdr8","bigger","shrew123","to test reflexes","no","stimuli/2-Congruent.jpg","z","","","","","left","z","true"
"","null","html-keyboard-response","11","2.0.0","67851","phpbsvpjdr8","bigger","shrew123","to test reflexes","no","<p>Correct!</p>","null","","","","","","",""
"","null","html-keyboard-response","12","2.0.0","68855","phpbsvpjdr8","bigger","shrew123","to test reflexes","no","<div style=""font-size:60px;"">+</div>","null","","","","","","",""
"","1138","image-keyboard-response","13","2.0.0","69996","phpbsvpjdr8","bigger","shrew123","to test reflexes","no","stimuli/35-Inongruent.jpg","m","","","","","right","m","true"
"","null","html-keyboard-response","14","2.0.0","70898","phpbsvpjdr8","bigger","shrew123","to test reflexes","no","<p>Correct!</p>","null","","","","","","",""
"","null","html-keyboard-response","15","2.0.0","71902","phpbsvpjdr8","bigger","shrew123","to test reflexes","no","<div style=""font-size:60px;"">+</div>","null","","","","","","",""
"","1039","image-keyboard-response","16","2.0.0","72944","phpbsvpjdr8","bigger","shrew123","to test reflexes","no","stimuli/19-Congruent.jpg","z","","","","","left","z","true"
"","null","html-keyboard-response","17","2.0.0","73847","phpbsvpjdr8","bigger","shrew123","to test reflexes","no","<p>Correct!</p>","null","","","","","","",""
"","null","html-keyboard-response","18","2.0.0","74850","phpbsvpjdr8","bigger","shrew123","to test reflexes","no","<div style=""font-size:60px;"">+</div>","null","","","","","","",""
"","1028","image-keyboard-response","19","2.0.0","75880","phpbsvpjdr8","bigger","shrew123","to test reflexes","no","stimuli/17-Congruent.jpg","z","","","","","left","z","true"
"","null","html-keyboard-response","20","2.0.0","76783","phpbsvpjdr8","bigger","shrew123","to test reflexes","no","<p>Correct!</p>","null","","","","","","",""
"","null","html-keyboard-response","21","2.0.0","77786","phpbsvpjdr8","bigger","shrew123","to test reflexes","no","<div style=""font-size:60px;"">+</div>","null","","","","","","",""
"","1282","image-keyboard-response","22","2.0.0","79070","phpbsvpjdr8","bigger","shrew123","to test reflexes","no","stimuli/13-Congruent.jpg","z","","","","","left","z","true"
"","null","html-keyboard-response","23","2.0.0","79973","phpbsvpjdr8","bigger","shrew123","to test reflexes","no","<p>Correct!</p>","null","","","","","","",""
"","null","html-keyboard-response","24","2.0.0","80977","phpbsvpjdr8","bigger","shrew123","to test reflexes","no","<div style=""font-size:60px;"">+</div>","null","","","","","","",""
"","672","image-keyboard-response","25","2.0.0","81651","phpbsvpjdr8","bigger","shrew123","to test reflexes","no","stimuli/29-Inongruent.jpg","m","","","","","right","m","true"
"","null","html-keyboard-response","26","2.0.0","82554","phpbsvpjdr8","bigger","shrew123","to test reflexes","no","<p>Correct!</p>","null","","","","","","",""
"","null","html-keyboard-response","27","2.0.0","83557","phpbsvpjdr8","bigger","shrew123","to test reflexes","no","<div style=""font-size:60px;"">+</div>","null","","","","","","",""
"","713","image-keyboard-response","28","2.0.0","84272","phpbsvpjdr8","bigger","shrew123","to test reflexes","no","stimuli/15-Congruent.jpg","z","","","","","left","z","true"
"","null","html-keyboard-response","29","2.0.0","85174","phpbsvpjdr8","bigger","shrew123","to test reflexes","no","<p>Correct!</p>","null","","","","","","",""
"","null","html-keyboard-response","30","2.0.0","86177","phpbsvpjdr8","bigger","shrew123","to test reflexes","no","<div style=""font-size:60px;"">+</div>","null","","","","","","",""
"","1048","image-keyboard-response","31","2.0.0","87227","phpbsvpjdr8","bigger","shrew123","to test reflexes","no","stimuli/11-Congruent.jpg","z","","","","","left","z","true"
"","null","html-keyboard-response","32","2.0.0","88131","phpbsvpjdr8","bigger","shrew123","to test reflexes","no","<p>Correct!</p>","null","","","","","","",""
"","null","html-keyboard-response","33","2.0.0","89134","phpbsvpjdr8","bigger","shrew123","to test reflexes","no","<div style=""font-size:60px;"">+</div>","null","","","","","","",""
"","761","image-keyboard-response","34","2.0.0","89898","phpbsvpjdr8","bigger","shrew123","to test reflexes","no","stimuli/24-Congruent.jpg","z","","","","","left","z","true"
"","null","html-keyboard-response","35","2.0.0","90801","phpbsvpjdr8","bigger","shrew123","to test reflexes","no","<p>Correct!</p>","null","","","","","","",""
"","null","html-keyboard-response","36","2.0.0","91803","phpbsvpjdr8","bigger","shrew123","to test reflexes","no","<div style=""font-size:60px;"">+</div>","null","","","","","","",""
"","745","image-keyboard-response","37","2.0.0","92550","phpbsvpjdr8","bigger","shrew123","to test reflexes","no","stimuli/34-Inongruent.jpg","m","","","","","right","m","true"
"","null","html-keyboard-response","38","2.0.0","93453","phpbsvpjdr8","bigger","shrew123","to test reflexes","no","<p>Correct!</p>","null","","","","","","",""
"","null","html-keyboard-response","39","2.0.0","94457","phpbsvpjdr8","bigger","shrew123","to test reflexes","no","<div style=""font-size:60px;"">+</div>","null","","","","","","",""
"","718","image-keyboard-response","40","2.0.0","95176","phpbsvpjdr8","bigger","shrew123","to test reflexes","no","stimuli/25-Congruent.jpg","z","","","","","left","z","true"
"","null","html-keyboard-response","41","2.0.0","96079","phpbsvpjdr8","bigger","shrew123","to test reflexes","no","<p>Correct!</p>","null","","","","","","",""
"","null","html-keyboard-response","42","2.0.0","97083","phpbsvpjdr8","bigger","shrew123","to test reflexes","no","<div style=""font-size:60px;"">+</div>","null","","","","","","",""
"","624","image-keyboard-response","43","2.0.0","97709","phpbsvpjdr8","bigger","shrew123","to test reflexes","no","stimuli/31-Inongruent.jpg","m","","","","","right","m","true"
"","null","html-keyboard-response","44","2.0.0","98612","phpbsvpjdr8","bigger","shrew123","to test reflexes","no","<p>Correct!</p>","null","","","","","","",""
"","null","html-keyboard-response","45","2.0.0","99615","phpbsvpjdr8","bigger","shrew123","to test reflexes","no","<div style=""font-size:60px;"">+</div>","null","","","","","","",""
"","693","image-keyboard-response","46","2.0.0","100310","phpbsvpjdr8","bigger","shrew123","to test reflexes","no","stimuli/25-Inongruent.jpg","m","","","","","right","m","true"
"","null","html-keyboard-response","47","2.0.0","101213","phpbsvpjdr8","bigger","shrew123","to test reflexes","no","<p>Correct!</p>","null","","","","","","",""
"","null","html-keyboard-response","48","2.0.0","102215","phpbsvpjdr8","bigger","shrew123","to test reflexes","no","<div style=""font-size:60px;"">+</div>","null","","","","","","",""
"","670","image-keyboard-response","49","2.0.0","102887","phpbsvpjdr8","bigger","shrew123","to test reflexes","no","stimuli/4-Congruent.jpg","z","","","","","left","z","true"
"","null","html-keyboard-response","50","2.0.0","103789","phpbsvpjdr8","bigger","shrew123","to test reflexes","no","<p>Correct!</p>","null","","","","","","",""
"","null","html-keyboard-response","51","2.0.0","104793","phpbsvpjdr8","bigger","shrew123","to test reflexes","no","<div style=""font-size:60px;"">+</div>","null","","","","","","",""
"","705","image-keyboard-response","52","2.0.0","105500","phpbsvpjdr8","bigger","shrew123","to test reflexes","no","stimuli/11-Inongruent.jpg","m","","","","","right","m","true"
"","null","html-keyboard-response","53","2.0.0","106404","phpbsvpjdr8","bigger","shrew123","to test reflexes","no","<p>Correct!</p>","null","","","","","","",""
"","null","html-keyboard-response","54","2.0.0","107407","phpbsvpjdr8","bigger","shrew123","to test reflexes","no","<div style=""font-size:60px;"">+</div>","null","","","","","","",""
"","715","image-keyboard-response","55","2.0.0","108124","phpbsvpjdr8","bigger","shrew123","to test reflexes","no","stimuli/9-Congruent.jpg","z","","","","","left","z","true"
"","null","html-keyboard-response","56","2.0.0","109026","phpbsvpjdr8","bigger","shrew123","to test reflexes","no","<p>Correct!</p>","null","","","","","","",""
"","null","html-keyboard-response","57","2.0.0","110029","phpbsvpjdr8","bigger","shrew123","to test reflexes","no","<div style=""font-size:60px;"">+</div>","null","","","","","","",""
"","716","image-keyboard-response","58","2.0.0","110747","phpbsvpjdr8","bigger","shrew123","to test reflexes","no","stimuli/7-Inongruent.jpg","m","","","","","right","m","true"
"","null","html-keyboard-response","59","2.0.0","111650","phpbsvpjdr8","bigger","shrew123","to test reflexes","no","<p>Correct!</p>","null","","","","","","",""
"","null","html-keyboard-response","60","2.0.0","112653","phpbsvpjdr8","bigger","shrew123","to test reflexes","no","<div style=""font-size:60px;"">+</div>","null","","","","","","",""
"","700","image-keyboard-response","61","2.0.0","113356","phpbsvpjdr8","bigger","shrew123","to test reflexes","no","stimuli/9-Inongruent.jpg","m","","","","","right","m","true"
"","null","html-keyboard-response","62","2.0.0","114257","phpbsvpjdr8","bigger","shrew123","to test reflexes","no","<p>Correct!</p>","null","","","","","","",""
"","null","html-keyboard-response","63","2.0.0","115260","phpbsvpjdr8","bigger","shrew123","to test reflexes","no","<div style=""font-size:60px;"">+</div>","null","","","","","","",""
"","649","image-keyboard-response","64","2.0.0","115911","phpbsvpjdr8","bigger","shrew123","to test reflexes","no","stimuli/6-Congruent.jpg","z","","","","","left","z","true"
"","null","html-keyboard-response","65","2.0.0","116814","phpbsvpjdr8","bigger","shrew123","to test reflexes","no","<p>Correct!</p>","null","","","","","","",""
"","null","html-keyboard-response","66","2.0.0","117816","phpbsvpjdr8","bigger","shrew123","to test reflexes","no","<div style=""font-size:60px;"">+</div>","null","","","","","","",""
"","782","image-keyboard-response","67","2.0.0","118600","phpbsvpjdr8","bigger","shrew123","to test reflexes","no","stimuli/35-Congruent.jpg","z","","","","","left","z","true"
"","null","html-keyboard-response","68","2.0.0","119502","phpbsvpjdr8","bigger","shrew123","to test reflexes","no","<p>Correct!</p>","null","","","","","","",""
"","null","html-keyboard-response","69","2.0.0","120506","phpbsvpjdr8","bigger","shrew123","to test reflexes","no","<div style=""font-size:60px;"">+</div>","null","","","","","","",""
"","543","image-keyboard-response","70","2.0.0","121050","phpbsvpjdr8","bigger","shrew123","to test reflexes","no","stimuli/26-Inongruent.jpg","m","","","","","right","m","true"
"","null","html-keyboard-response","71","2.0.0","121953","phpbsvpjdr8","bigger","shrew123","to test reflexes","no","<p>Correct!</p>","null","","","","","","",""
"","null","html-keyboard-response","72","2.0.0","122956","phpbsvpjdr8","bigger","shrew123","to test reflexes","no","<div style=""font-size:60px;"">+</div>","null","","","","","","",""
"","650","image-keyboard-response","73","2.0.0","123608","phpbsvpjdr8","bigger","shrew123","to test reflexes","no","stimuli/4-Inongruent.jpg","m","","","","","right","m","true"
"","null","html-keyboard-response","74","2.0.0","124511","phpbsvpjdr8","bigger","shrew123","to test reflexes","no","<p>Correct!</p>","null","","","","","","",""
"","null","html-keyboard-response","75","2.0.0","125515","phpbsvpjdr8","bigger","shrew123","to test reflexes","no","<div style=""font-size:60px;"">+</div>","null","","","","","","",""
"","602","image-keyboard-response","76","2.0.0","126119","phpbsvpjdr8","bigger","shrew123","to test reflexes","no","stimuli/12-Congruent.jpg","z","","","","","left","z","true"
"","null","html-keyboard-response","77","2.0.0","127021","phpbsvpjdr8","bigger","shrew123","to test reflexes","no","<p>Correct!</p>","null","","","","","","",""
"","null","html-keyboard-response","78","2.0.0","128023","phpbsvpjdr8","bigger","shrew123","to test reflexes","no","<div style=""font-size:60px;"">+</div>","null","","","","","","",""
"","604","image-keyboard-response","79","2.0.0","128628","phpbsvpjdr8","bigger","shrew123","to test reflexes","no","stimuli/3-Inongruent.jpg","m","","","","","right","m","true"
"","null","html-keyboard-response","80","2.0.0","129530","phpbsvpjdr8","bigger","shrew123","to test reflexes","no","<p>Correct!</p>","null","","","","","","",""
"","null","html-keyboard-response","81","2.0.0","130532","phpbsvpjdr8","bigger","shrew123","to test reflexes","no","<div style=""font-size:60px;"">+</div>","null","","","","","","",""
"","584","image-keyboard-response","82","2.0.0","131118","phpbsvpjdr8","bigger","shrew123","to test reflexes","no","stimuli/5-Congruent.jpg","z","","","","","left","z","true"
"","null","html-keyboard-response","83","2.0.0","132021","phpbsvpjdr8","bigger","shrew123","to test reflexes","no","<p>Correct!</p>","null","","","","","","",""
"","null","html-keyboard-response","84","2.0.0","133024","phpbsvpjdr8","bigger","shrew123","to test reflexes","no","<div style=""font-size:60px;"">+</div>","null","","","","","","",""
"","556","image-keyboard-response","85","2.0.0","133582","phpbsvpjdr8","bigger","shrew123","to test reflexes","no","stimuli/14-Inongruent.jpg","m","","","","","right","m","true"
"","null","html-keyboard-response","86","2.0.0","134485","phpbsvpjdr8","bigger","shrew123","to test reflexes","no","<p>Correct!</p>","null","","","","","","",""
"","null","html-keyboard-response","87","2.0.0","135488","phpbsvpjdr8","bigger","shrew123","to test reflexes","no","<div style=""font-size:60px;"">+</div>","null","","","","","","",""
"","552","image-keyboard-response","88","2.0.0","136042","phpbsvpjdr8","bigger","shrew123","to test reflexes","no","stimuli/6-Inongruent.jpg","m","","","","","right","m","true"
"","null","html-keyboard-response","89","2.0.0","136944","phpbsvpjdr8","bigger","shrew123","to test reflexes","no","<p>Correct!</p>","null","","","","","","",""
"","null","html-keyboard-response","90","2.0.0","137947","phpbsvpjdr8","bigger","shrew123","to test reflexes","no","<div style=""font-size:60px;"">+</div>","null","","","","","","",""
"","958","image-keyboard-response","91","2.0.0","138907","phpbsvpjdr8","bigger","shrew123","to test reflexes","no","stimuli/16-Inongruent.jpg","m","","","","","right","m","true"
"","null","html-keyboard-response","92","2.0.0","139809","phpbsvpjdr8","bigger","shrew123","to test reflexes","no","<p>Correct!</p>","null","","","","","","",""
"","null","html-keyboard-response","93","2.0.0","140812","phpbsvpjdr8","bigger","shrew123","to test reflexes","no","<div style=""font-size:60px;"">+</div>","null","","","","","","",""
"","637","image-keyboard-response","94","2.0.0","141450","phpbsvpjdr8","bigger","shrew123","to test reflexes","no","stimuli/11-Congruent.jpg","z","","","","","left","z","true"
"","null","html-keyboard-response","95","2.0.0","142353","phpbsvpjdr8","bigger","shrew123","to test reflexes","no","<p>Correct!</p>","null","","","","","","",""
"","null","html-keyboard-response","96","2.0.0","143355","phpbsvpjdr8","bigger","shrew123","to test reflexes","no","<div style=""font-size:60px;"">+</div>","null","","","","","","",""
"","644","image-keyboard-response","97","2.0.0","144001","phpbsvpjdr8","bigger","shrew123","to test reflexes","no","stimuli/4-Congruent.jpg","z","","","","","left","z","true"
"","null","html-keyboard-response","98","2.0.0","144903","phpbsvpjdr8","bigger","shrew123","to test reflexes","no","<p>Correct!</p>","null","","","","","","",""
"","null","html-keyboard-response","99","2.0.0","145906","phpbsvpjdr8","bigger","shrew123","to test reflexes","no","<div style=""font-size:60px;"">+</div>","null","","","","","","",""
"","669","image-keyboard-response","100","2.0.0","146577","phpbsvpjdr8","bigger","shrew123","to test reflexes","no","stimuli/23-Congruent.jpg","z","","","","","left","z","true"
"","null","html-keyboard-response","101","2.0.0","147480","phpbsvpjdr8","bigger","shrew123","to test reflexes","no","<p>Correct!</p>","null","","","","","","",""
"","null","html-keyboard-response","102","2.0.0","148484","phpbsvpjdr8","bigger","shrew123","to test reflexes","no","<div style=""font-size:60px;"">+</div>","null","","","","","","",""
"","813","image-keyboard-response","103","2.0.0","149299","phpbsvpjdr8","bigger","shrew123","to test reflexes","no","stimuli/20-Congruent.jpg","z","","","","","left","z","true"
"","null","html-keyboard-response","104","2.0.0","150203","phpbsvpjdr8","bigger","shrew123","to test reflexes","no","<p>Correct!</p>","null","","","","","","",""
"","null","html-keyboard-response","105","2.0.0","151206","phpbsvpjdr8","bigger","shrew123","to test reflexes","no","<div style=""font-size:60px;"">+</div>","null","","","","","","",""
"","739","image-keyboard-response","106","2.0.0","151947","phpbsvpjdr8","bigger","shrew123","to test reflexes","no","stimuli/31-Congruent.jpg","z","","","","","left","z","true"
"","null","html-keyboard-response","107","2.0.0","152850","phpbsvpjdr8","bigger","shrew123","to test reflexes","no","<p>Correct!</p>","null","","","","","","",""
"","null","html-keyboard-response","108","2.0.0","153853","phpbsvpjdr8","bigger","shrew123","to test reflexes","no","<div style=""font-size:60px;"">+</div>","null","","","","","","",""
"","692","image-keyboard-response","109","2.0.0","154548","phpbsvpjdr8","bigger","shrew123","to test reflexes","no","stimuli/28-Congruent.jpg","z","","","","","left","z","true"
"","null","html-keyboard-response","110","2.0.0","155450","phpbsvpjdr8","bigger","shrew123","to test reflexes","no","<p>Correct!</p>","null","","","","","","",""
"","null","html-keyboard-response","111","2.0.0","156454","phpbsvpjdr8","bigger","shrew123","to test reflexes","no","<div style=""font-size:60px;"">+</div>","null","","","","","","",""
"","806","image-keyboard-response","112","2.0.0","157262","phpbsvpjdr8","bigger","shrew123","to test reflexes","no","stimuli/16-Congruent.jpg","z","","","","","left","z","true"
"","null","html-keyboard-response","113","2.0.0","158165","phpbsvpjdr8","bigger","shrew123","to test reflexes","no","<p>Correct!</p>","null","","","","","","",""
"","null","html-keyboard-response","114","2.0.0","159167","phpbsvpjdr8","bigger","shrew123","to test reflexes","no","<div style=""font-size:60px;"">+</div>","null","","","","","","",""
"","640","image-keyboard-response","115","2.0.0","159809","phpbsvpjdr8","bigger","shrew123","to test reflexes","no","stimuli/17-Inongruent.jpg","m","","","","","right","m","true"
"","null","html-keyboard-response","116","2.0.0","160712","phpbsvpjdr8","bigger","shrew123","to test reflexes","no","<p>Correct!</p>","null","","","","","","",""
"","null","html-keyboard-response","117","2.0.0","161715","phpbsvpjdr8","bigger","shrew123","to test reflexes","no","<div style=""font-size:60px;"">+</div>","null","","","","","","",""
"","650","image-keyboard-response","118","2.0.0","162367","phpbsvpjdr8","bigger","shrew123","to test reflexes","no","stimuli/31-Congruent.jpg","z","","","","","left","z","true"
"","null","html-keyboard-response","119","2.0.0","163270","phpbsvpjdr8","bigger","shrew123","to test reflexes","no","<p>Correct!</p>","null","","","","","","",""
"","null","html-keyboard-response","120","2.0.0","164273","phpbsvpjdr8","bigger","shrew123","to test reflexes","no","<div style=""font-size:60px;"">+</div>","null","","","","","","",""
"","786","image-keyboard-response","121","2.0.0","165061","phpbsvpjdr8","bigger","shrew123","to test reflexes","no","stimuli/5-Congruent.jpg","z","","","","","left","z","true"
"","null","html-keyboard-response","122","2.0.0","165965","phpbsvpjdr8","bigger","shrew123","to test reflexes","no","<p>Correct!</p>","null","","","","","","",""
"","null","html-keyboard-response","123","2.0.0","166967","phpbsvpjdr8","bigger","shrew123","to test reflexes","no","<div style=""font-size:60px;"">+</div>","null","","","","","","",""
"","904","image-keyboard-response","124","2.0.0","167873","phpbsvpjdr8","bigger","shrew123","to test reflexes","no","stimuli/22-Congruent.jpg","z","","","","","left","z","true"
"","null","html-keyboard-response","125","2.0.0","168775","phpbsvpjdr8","bigger","shrew123","to test reflexes","no","<p>Correct!</p>","null","","","","","","",""
"","null","html-keyboard-response","126","2.0.0","169778","phpbsvpjdr8","bigger","shrew123","to test reflexes","no","<div style=""font-size:60px;"">+</div>","null","","","","","","",""
"","715","image-keyboard-response","127","2.0.0","170495","phpbsvpjdr8","bigger","shrew123","to test reflexes","no","stimuli/27-Congruent.jpg","z","","","","","left","z","true"
"","null","html-keyboard-response","128","2.0.0","171398","phpbsvpjdr8","bigger","shrew123","to test reflexes","no","<p>Correct!</p>","null","","","","","","",""
"","null","html-keyboard-response","129","2.0.0","172402","phpbsvpjdr8","bigger","shrew123","to test reflexes","no","<div style=""font-size:60px;"">+</div>","null","","","","","","",""
"","1082","image-keyboard-response","130","2.0.0","173485","phpbsvpjdr8","bigger","shrew123","to test reflexes","no","stimuli/35-Congruent.jpg","z","","","","","left","z","true"
"","null","html-keyboard-response","131","2.0.0","174388","phpbsvpjdr8","bigger","shrew123","to test reflexes","no","<p>Correct!</p>","null","","","","","","",""
"","null","html-keyboard-response","132","2.0.0","175390","phpbsvpjdr8","bigger","shrew123","to test reflexes","no","<div style=""font-size:60px;"">+</div>","null","","","","","","",""
"","649","image-keyboard-response","133","2.0.0","176041","phpbsvpjdr8","bigger","shrew123","to test reflexes","no","stimuli/10-Congruent.jpg","z","","","","","left","z","true"
"","null","html-keyboard-response","134","2.0.0","176944","phpbsvpjdr8","bigger","shrew123","to test reflexes","no","<p>Correct!</p>","null","","","","","","",""
"","null","html-keyboard-response","135","2.0.0","177948","phpbsvpjdr8","bigger","shrew123","to test reflexes","no","<div style=""font-size:60px;"">+</div>","null","","","","","","",""
"","651","image-keyboard-response","136","2.0.0","178600","phpbsvpjdr8","bigger","shrew123","to test reflexes","no","stimuli/12-Congruent.jpg","z","","","","","left","z","true"
"","null","html-keyboard-response","137","2.0.0","179503","phpbsvpjdr8","bigger","shrew123","to test reflexes","no","<p>Correct!</p>","null","","","","","","",""
"","null","html-keyboard-response","138","2.0.0","180507","phpbsvpjdr8","bigger","shrew123","to test reflexes","no","<div style=""font-size:60px;"">+</div>","null","","","","","","",""
"","551","image-keyboard-response","139","2.0.0","181060","phpbsvpjdr8","bigger","shrew123","to test reflexes","no","stimuli/14-Inongruent.jpg","m","","","","","right","m","true"
"","null","html-keyboard-response","140","2.0.0","181962","phpbsvpjdr8","bigger","shrew123","to test reflexes","no","<p>Correct!</p>","null","","","","","","",""
"","null","html-keyboard-response","141","2.0.0","182965","phpbsvpjdr8","bigger","shrew123","to test reflexes","no","<div style=""font-size:60px;"">+</div>","null","","","","","","",""
"","715","image-keyboard-response","142","2.0.0","183682","phpbsvpjdr8","bigger","shrew123","to test reflexes","no","stimuli/1-Congruent.jpg","z","","","","","left","z","true"
"","null","html-keyboard-response","143","2.0.0","184585","phpbsvpjdr8","bigger","shrew123","to test reflexes","no","<p>Correct!</p>","null","","","","","","",""
"","null","html-keyboard-response","144","2.0.0","185588","phpbsvpjdr8","bigger","shrew123","to test reflexes","no","<div style=""font-size:60px;"">+</div>","null","","","","","","",""
"","3786","image-keyboard-response","145","2.0.0","189376","phpbsvpjdr8","bigger","shrew123","to test reflexes","no","stimuli/19-Congruent.jpg","z","","","","","left","z","true"
"","null","html-keyboard-response","146","2.0.0","190279","phpbsvpjdr8","bigger","shrew123","to test reflexes","no","<p>Correct!</p>","null","","","","","","",""
"","null","html-keyboard-response","147","2.0.0","191282","phpbsvpjdr8","bigger","shrew123","to test reflexes","no","<div style=""font-size:60px;"">+</div>","null","","","","","","",""
"","612","image-keyboard-response","148","2.0.0","191896","phpbsvpjdr8","bigger","shrew123","to test reflexes","no","stimuli/13-Inongruent.jpg","m","","","","","right","m","true"
"","null","html-keyboard-response","149","2.0.0","192799","phpbsvpjdr8","bigger","shrew123","to test reflexes","no","<p>Correct!</p>","null","","","","","","",""
"","null","html-keyboard-response","150","2.0.0","193803","phpbsvpjdr8","bigger","shrew123","to test reflexes","no","<div style=""font-size:60px;"">+</div>","null","","","","","","",""
"","937","image-keyboard-response","151","2.0.0","194741","phpbsvpjdr8","bigger","shrew123","to test reflexes","no","stimuli/21-Inongruent.jpg","m","","","","","right","m","true"
"","null","html-keyboard-response","152","2.0.0","195645","phpbsvpjdr8","bigger","shrew123","to test reflexes","no","<p>Correct!</p>","null","","","","","","",""
"","null","html-keyboard-response","153","2.0.0","196648","phpbsvpjdr8","bigger","shrew123","to test reflexes","no","<div style=""font-size:60px;"">+</div>","null","","","","","","",""
"","746","image-keyboard-response","154","2.0.0","197395","phpbsvpjdr8","bigger","shrew123","to test reflexes","no","stimuli/30-Inongruent.jpg","m","","","","","right","m","true"
"","null","html-keyboard-response","155","2.0.0","198298","phpbsvpjdr8","bigger","shrew123","to test reflexes","no","<p>Correct!</p>","null","","","","","","",""
"","null","html-keyboard-response","156","2.0.0","199299","phpbsvpjdr8","bigger","shrew123","to test reflexes","no","<div style=""font-size:60px;"">+</div>","null","","","","","","",""
"","805","image-keyboard-response","157","2.0.0","200105","phpbsvpjdr8","bigger","shrew123","to test reflexes","no","stimuli/16-Congruent.jpg","z","","","","","left","z","true"
"","null","html-keyboard-response","158","2.0.0","201007","phpbsvpjdr8","bigger","shrew123","to test reflexes","no","<p>Correct!</p>","null","","","","","","",""
"","null","html-keyboard-response","159","2.0.0","202010","phpbsvpjdr8","bigger","shrew123","to test reflexes","no","<div style=""font-size:60px;"">+</div>","null","","","","","","",""
"","783","image-keyboard-response","160","2.0.0","202795","phpbsvpjdr8","bigger","shrew123","to test reflexes","no","stimuli/26-Congruent.jpg","z","","","","","left","z","true"
"","null","html-keyboard-response","161","2.0.0","203698","phpbsvpjdr8","bigger","shrew123","to test reflexes","no","<p>Correct!</p>","null","","","","","","",""
"","null","html-keyboard-response","162","2.0.0","204701","phpbsvpjdr8","bigger","shrew123","to test reflexes","no","<div style=""font-size:60px;"">+</div>","null","","","","","","",""
"","914","image-keyboard-response","163","2.0.0","205617","phpbsvpjdr8","bigger","shrew123","to test reflexes","no","stimuli/33-Congruent.jpg","z","","","","","left","z","true"
"","null","html-keyboard-response","164","2.0.0","206521","phpbsvpjdr8","bigger","shrew123","to test reflexes","no","<p>Correct!</p>","null","","","","","","",""
"","null","html-keyboard-response","165","2.0.0","207523","phpbsvpjdr8","bigger","shrew123","to test reflexes","no","<div style=""font-size:60px;"">+</div>","null","","","","","","",""
"","625","image-keyboard-response","166","2.0.0","208151","phpbsvpjdr8","bigger","shrew123","to test reflexes","no","stimuli/13-Inongruent.jpg","m","","","","","right","m","true"
"","null","html-keyboard-response","167","2.0.0","209054","phpbsvpjdr8","bigger","shrew123","to test reflexes","no","<p>Correct!</p>","null","","","","","","",""
"","null","html-keyboard-response","168","2.0.0","210057","phpbsvpjdr8","bigger","shrew123","to test reflexes","no","<div style=""font-size:60px;"">+</div>","null","","","","","","",""
"","625","image-keyboard-response","169","2.0.0","210684","phpbsvpjdr8","bigger","shrew123","to test reflexes","no","stimuli/31-Inongruent.jpg","m","","","","","right","m","true"
"","null","html-keyboard-response","170","2.0.0","211587","phpbsvpjdr8","bigger","shrew123","to test reflexes","no","<p>Correct!</p>","null","","","","","","",""
"","null","html-keyboard-response","171","2.0.0","212590","phpbsvpjdr8","bigger","shrew123","to test reflexes","no","<div style=""font-size:60px;"">+</div>","null","","","","","","",""
"","1084","image-keyboard-response","172","2.0.0","213675","phpbsvpjdr8","bigger","shrew123","to test reflexes","no","stimuli/33-Inongruent.jpg","m","","","","","right","m","true"
"","null","html-keyboard-response","173","2.0.0","214579","phpbsvpjdr8","bigger","shrew123","to test reflexes","no","<p>Correct!</p>","null","","","","","","",""
"","null","html-keyboard-response","174","2.0.0","215582","phpbsvpjdr8","bigger","shrew123","to test reflexes","no","<div style=""font-size:60px;"">+</div>","null","","","","","","",""
"","643","image-keyboard-response","175","2.0.0","216227","phpbsvpjdr8","bigger","shrew123","to test reflexes","no","stimuli/6-Inongruent.jpg","m","","","","","right","m","true"
"","null","html-keyboard-response","176","2.0.0","217130","phpbsvpjdr8","bigger","shrew123","to test reflexes","no","<p>Correct!</p>","null","","","","","","",""
"","null","html-keyboard-response","177","2.0.0","218133","phpbsvpjdr8","bigger","shrew123","to test reflexes","no","<div style=""font-size:60px;"">+</div>","null","","","","","","",""
"","653","image-keyboard-response","178","2.0.0","218788","phpbsvpjdr8","bigger","shrew123","to test reflexes","no","stimuli/32-Inongruent.jpg","m","","","","","right","m","true"
"","null","html-keyboard-response","179","2.0.0","219690","phpbsvpjdr8","bigger","shrew123","to test reflexes","no","<p>Correct!</p>","null","","","","","","",""
"","null","html-keyboard-response","180","2.0.0","220694","phpbsvpjdr8","bigger","shrew123","to test reflexes","no","<div style=""font-size:60px;"">+</div>","null","","","","","","",""
"","689","image-keyboard-response","181","2.0.0","221384","phpbsvpjdr8","bigger","shrew123","to test reflexes","no","stimuli/21-Congruent.jpg","z","","","","","left","z","true"
"","null","html-keyboard-response","182","2.0.0","222287","phpbsvpjdr8","bigger","shrew123","to test reflexes","no","<p>Correct!</p>","null","","","","","","",""
"","null","html-keyboard-response","183","2.0.0","223290","phpbsvpjdr8","bigger","shrew123","to test reflexes","no","<div style=""font-size:60px;"">+</div>","null","","","","","","",""
"","740","image-keyboard-response","184","2.0.0","224032","phpbsvpjdr8","bigger","shrew123","to test reflexes","no","stimuli/32-Congruent.jpg","z","","","","","left","z","true"
"","null","html-keyboard-response","185","2.0.0","224934","phpbsvpjdr8","bigger","shrew123","to test reflexes","no","<p>Correct!</p>","null","","","","","","",""
"","null","html-keyboard-response","186","2.0.0","225937","phpbsvpjdr8","bigger","shrew123","to test reflexes","no","<div style=""font-size:60px;"">+</div>","null","","","","","","",""
"","708","image-keyboard-response","187","2.0.0","226647","phpbsvpjdr8","bigger","shrew123","to test reflexes","no","stimuli/19-Inongruent.jpg","m","","","","","right","m","true"
"","null","html-keyboard-response","188","2.0.0","227550","phpbsvpjdr8","bigger","shrew123","to test reflexes","no","<p>Correct!</p>","null","","","","","","",""
"","null","html-keyboard-response","189","2.0.0","228553","phpbsvpjdr8","bigger","shrew123","to test reflexes","no","<div style=""font-size:60px;"">+</div>","null","","","","","","",""
"","737","image-keyboard-response","190","2.0.0","229291","phpbsvpjdr8","bigger","shrew123","to test reflexes","no","stimuli/32-Inongruent.jpg","m","","","","","right","m","true"
"","null","html-keyboard-response","191","2.0.0","230193","phpbsvpjdr8","bigger","shrew123","to test reflexes","no","<p>Correct!</p>","null","","","","","","",""
"","null","html-keyboard-response","192","2.0.0","231197","phpbsvpjdr8","bigger","shrew123","to test reflexes","no","<div style=""font-size:60px;"">+</div>","null","","","","","","",""
"","848","image-keyboard-response","193","2.0.0","232047","phpbsvpjdr8","bigger","shrew123","to test reflexes","no","stimuli/26-Congruent.jpg","z","","","","","left","z","true"
"","null","html-keyboard-response","194","2.0.0","232949","phpbsvpjdr8","bigger","shrew123","to test reflexes","no","<p>Correct!</p>","null","","","","","","",""
"","null","html-keyboard-response","195","2.0.0","233952","phpbsvpjdr8","bigger","shrew123","to test reflexes","no","<div style=""font-size:60px;"">+</div>","null","","","","","","",""
"","811","image-keyboard-response","196","2.0.0","234765","phpbsvpjdr8","bigger","shrew123","to test reflexes","no","stimuli/9-Congruent.jpg","z","","","","","left","z","true"
"","null","html-keyboard-response","197","2.0.0","235668","phpbsvpjdr8","bigger","shrew123","to test reflexes","no","<p>Correct!</p>","null","","","","","","",""
"","null","html-keyboard-response","198","2.0.0","236672","phpbsvpjdr8","bigger","shrew123","to test reflexes","no","<div style=""font-size:60px;"">+</div>","null","","","","","","",""
"","756","image-keyboard-response","199","2.0.0","237429","phpbsvpjdr8","bigger","shrew123","to test reflexes","no","stimuli/27-Inongruent.jpg","m","","","","","right","m","true"
"","null","html-keyboard-response","200","2.0.0","238332","phpbsvpjdr8","bigger","shrew123","to test reflexes","no","<p>Correct!</p>","null","","","","","","",""
"","null","html-keyboard-response","201","2.0.0","239335","phpbsvpjdr8","bigger","shrew123","to test reflexes","no","<div style=""font-size:60px;"">+</div>","null","","","","","","",""
"","837","image-keyboard-response","202","2.0.0","240174","phpbsvpjdr8","bigger","shrew123","to test reflexes","no","stimuli/10-Inongruent.jpg","m","","","","","right","m","true"
"","null","html-keyboard-response","203","2.0.0","241078","phpbsvpjdr8","bigger","shrew123","to test reflexes","no","<p>Correct!</p>","null","","","","","","",""
"","null","html-keyboard-response","204","2.0.0","242081","phpbsvpjdr8","bigger","shrew123","to test reflexes","no","<div style=""font-size:60px;"">+</div>","null","","","","","","",""
"","796","image-keyboard-response","205","2.0.0","242879","phpbsvpjdr8","bigger","shrew123","to test reflexes","no","stimuli/29-Congruent.jpg","z","","","","","left","z","true"
"","null","html-keyboard-response","206","2.0.0","243782","phpbsvpjdr8","bigger","shrew123","to test reflexes","no","<p>Correct!</p>","null","","","","","","",""
"","null","html-keyboard-response","207","2.0.0","244786","phpbsvpjdr8","bigger","shrew123","to test reflexes","no","<div style=""font-size:60px;"">+</div>","null","","","","","","",""
"","734","image-keyboard-response","208","2.0.0","245521","phpbsvpjdr8","bigger","shrew123","to test reflexes","no","stimuli/2-Congruent.jpg","z","","","","","left","z","true"
"","null","html-keyboard-response","209","2.0.0","246423","phpbsvpjdr8","bigger","shrew123","to test reflexes","no","<p>Correct!</p>","null","","","","","","",""
"","null","html-keyboard-response","210","2.0.0","247426","phpbsvpjdr8","bigger","shrew123","to test reflexes","no","<div style=""font-size:60px;"">+</div>","null","","","","","","",""
"","650","image-keyboard-response","211","2.0.0","248078","phpbsvpjdr8","bigger","shrew123","to test reflexes","no","stimuli/1-Inongruent.jpg","m","","","","","right","m","true"
"","null","html-keyboard-response","212","2.0.0","248980","phpbsvpjdr8","bigger","shrew123","to test reflexes","no","<p>Correct!</p>","null","","","","","","",""
"","null","html-keyboard-response","213","2.0.0","249983","phpbsvpjdr8","bigger","shrew123","to test reflexes","no","<div style=""font-size:60px;"">+</div>","null","","","","","","",""
"","652","image-keyboard-response","214","2.0.0","250637","phpbsvpjdr8","bigger","shrew123","to test reflexes","no","stimuli/30-Congruent.jpg","z","","","","","left","z","true"
"","null","html-keyboard-response","215","2.0.0","251540","phpbsvpjdr8","bigger","shrew123","to test reflexes","no","<p>Correct!</p>","null","","","","","","",""
"","null","html-keyboard-response","216","2.0.0","252543","phpbsvpjdr8","bigger","shrew123","to test reflexes","no","<div style=""font-size:60px;"">+</div>","null","","","","","","",""
"","813","image-keyboard-response","217","2.0.0","253357","phpbsvpjdr8","bigger","shrew123","to test reflexes","no","stimuli/10-Congruent.jpg","z","","","","","left","z","true"
"","null","html-keyboard-response","218","2.0.0","254260","phpbsvpjdr8","bigger","shrew123","to test reflexes","no","<p>Correct!</p>","null","","","","","","",""
"","null","html-keyboard-response","219","2.0.0","255263","phpbsvpjdr8","bigger","shrew123","to test reflexes","no","<div style=""font-size:60px;"">+</div>","null","","","","","","",""
"","628","image-keyboard-response","220","2.0.0","255893","phpbsvpjdr8","bigger","shrew123","to test reflexes","no","stimuli/28-Inongruent.jpg","m","","","","","right","m","true"
"","null","html-keyboard-response","221","2.0.0","256795","phpbsvpjdr8","bigger","shrew123","to test reflexes","no","<p>Correct!</p>","null","","","","","","",""
"","null","html-keyboard-response","222","2.0.0","257798","phpbsvpjdr8","bigger","shrew123","to test reflexes","no","<div style=""font-size:60px;"">+</div>","null","","","","","","",""
"","639","image-keyboard-response","223","2.0.0","258438","phpbsvpjdr8","bigger","shrew123","to test reflexes","no","stimuli/35-Inongruent.jpg","m","","","","","right","m","true"
"","null","html-keyboard-response","224","2.0.0","259339","phpbsvpjdr8","bigger","shrew123","to test reflexes","no","<p>Correct!</p>","null","","","","","","",""
"","null","html-keyboard-response","225","2.0.0","260342","phpbsvpjdr8","bigger","shrew123","to test reflexes","no","<div style=""font-size:60px;"">+</div>","null","","","","","","",""
"","685","image-keyboard-response","226","2.0.0","261029","phpbsvpjdr8","bigger","shrew123","to test reflexes","no","stimuli/25-Inongruent.jpg","m","","","","","right","m","true"
"","null","html-keyboard-response","227","2.0.0","261931","phpbsvpjdr8","bigger","shrew123","to test reflexes","no","<p>Correct!</p>","null","","","","","","",""
"","null","html-keyboard-response","228","2.0.0","262935","phpbsvpjdr8","bigger","shrew123","to test reflexes","no","<div style=""font-size:60px;"">+</div>","null","","","","","","",""
"","659","image-keyboard-response","229","2.0.0","263596","phpbsvpjdr8","bigger","shrew123","to test reflexes","no","stimuli/2-Inongruent.jpg","m","","","","","right","m","true"
"","null","html-keyboard-response","230","2.0.0","264500","phpbsvpjdr8","bigger","shrew123","to test reflexes","no","<p>Correct!</p>","null","","","","","","",""
"","null","html-keyboard-response","231","2.0.0","265503","phpbsvpjdr8","bigger","shrew123","to test reflexes","no","<div style=""font-size:60px;"">+</div>","null","","","","","","",""
"","762","image-keyboard-response","232","2.0.0","266266","phpbsvpjdr8","bigger","shrew123","to test reflexes","no","stimuli/26-Inongruent.jpg","m","","","","","right","m","true"
"","null","html-keyboard-response","233","2.0.0","267169","phpbsvpjdr8","bigger","shrew123","to test reflexes","no","<p>Correct!</p>","null","","","","","","",""
"","null","html-keyboard-response","234","2.0.0","268172","phpbsvpjdr8","bigger","shrew123","to test reflexes","no","<div style=""font-size:60px;"">+</div>","null","","","","","","",""
"","688","image-keyboard-response","235","2.0.0","268862","phpbsvpjdr8","bigger","shrew123","to test reflexes","no","stimuli/29-Congruent.jpg","z","","","","","left","z","true"
"","null","html-keyboard-response","236","2.0.0","269765","phpbsvpjdr8","bigger","shrew123","to test reflexes","no","<p>Correct!</p>","null","","","","","","",""
"","null","html-keyboard-response","237","2.0.0","270768","phpbsvpjdr8","bigger","shrew123","to test reflexes","no","<div style=""font-size:60px;"">+</div>","null","","","","","","",""
"","720","image-keyboard-response","238","2.0.0","271490","phpbsvpjdr8","bigger","shrew123","to test reflexes","no","stimuli/36-Inongruent.jpg","m","","","","","right","m","true"
"","null","html-keyboard-response","239","2.0.0","272393","phpbsvpjdr8","bigger","shrew123","to test reflexes","no","<p>Correct!</p>","null","","","","","","",""
"","null","html-keyboard-response","240","2.0.0","273396","phpbsvpjdr8","bigger","shrew123","to test reflexes","no","<div style=""font-size:60px;"">+</div>","null","","","","","","",""
"","755","image-keyboard-response","241","2.0.0","274152","phpbsvpjdr8","bigger","shrew123","to test reflexes","no","stimuli/18-Inongruent.jpg","m","","","","","right","m","true"
"","null","html-keyboard-response","242","2.0.0","275056","phpbsvpjdr8","bigger","shrew123","to test reflexes","no","<p>Correct!</p>","null","","","","","","",""
"","null","html-keyboard-response","243","2.0.0","276058","phpbsvpjdr8","bigger","shrew123","to test reflexes","no","<div style=""font-size:60px;"">+</div>","null","","","","","","",""
"","709","image-keyboard-response","244","2.0.0","276769","phpbsvpjdr8","bigger","shrew123","to test reflexes","no","stimuli/19-Inongruent.jpg","m","","","","","right","m","true"
"","null","html-keyboard-response","245","2.0.0","277672","phpbsvpjdr8","bigger","shrew123","to test reflexes","no","<p>Correct!</p>","null","","","","","","",""
"","null","html-keyboard-response","246","2.0.0","278675","phpbsvpjdr8","bigger","shrew123","to test reflexes","no","<div style=""font-size:60px;"">+</div>","null","","","","","","",""
"","815","image-keyboard-response","247","2.0.0","279491","phpbsvpjdr8","bigger","shrew123","to test reflexes","no","stimuli/27-Inongruent.jpg","m","","","","","right","m","true"
"","null","html-keyboard-response","248","2.0.0","280394","phpbsvpjdr8","bigger","shrew123","to test reflexes","no","<p>Correct!</p>","null","","","","","","",""
"","null","html-keyboard-response","249","2.0.0","281397","phpbsvpjdr8","bigger","shrew123","to test reflexes","no","<div style=""font-size:60px;"">+</div>","null","","","","","","",""
"","723","image-keyboard-response","250","2.0.0","282122","phpbsvpjdr8","bigger","shrew123","to test reflexes","no","stimuli/10-Inongruent.jpg","m","","","","","right","m","true"
"","null","html-keyboard-response","251","2.0.0","283025","phpbsvpjdr8","bigger","shrew123","to test reflexes","no","<p>Correct!</p>","null","","","","","","",""
"","null","html-keyboard-response","252","2.0.0","284029","phpbsvpjdr8","bigger","shrew123","to test reflexes","no","<div style=""font-size:60px;"">+</div>","null","","","","","","",""
"","693","image-keyboard-response","253","2.0.0","284725","phpbsvpjdr8","bigger","shrew123","to test reflexes","no","stimuli/28-Inongruent.jpg","m","","","","","right","m","true"
"","null","html-keyboard-response","254","2.0.0","285628","phpbsvpjdr8","bigger","shrew123","to test reflexes","no","<p>Correct!</p>","null","","","","","","",""
"","null","html-keyboard-response","255","2.0.0","286631","phpbsvpjdr8","bigger","shrew123","to test reflexes","no","<div style=""font-size:60px;"">+</div>","null","","","","","","",""
"","831","image-keyboard-response","256","2.0.0","287464","phpbsvpjdr8","bigger","shrew123","to test reflexes","no","stimuli/30-Inongruent.jpg","m","","","","","right","m","true"
"","null","html-keyboard-response","257","2.0.0","288366","phpbsvpjdr8","bigger","shrew123","to test reflexes","no","<p>Correct!</p>","null","","","","","","",""
"","null","html-keyboard-response","258","2.0.0","289368","phpbsvpjdr8","bigger","shrew123","to test reflexes","no","<div style=""font-size:60px;"">+</div>","null","","","","","","",""
"","840","image-keyboard-response","259","2.0.0","290210","phpbsvpjdr8","bigger","shrew123","to test reflexes","no","stimuli/13-Congruent.jpg","z","","","","","left","z","true"
"","null","html-keyboard-response","260","2.0.0","291112","phpbsvpjdr8","bigger","shrew123","to test reflexes","no","<p>Correct!</p>","null","","","","","","",""
"","null","html-keyboard-response","261","2.0.0","292114","phpbsvpjdr8","bigger","shrew123","to test reflexes","no","<div style=""font-size:60px;"">+</div>","null","","","","","","",""
"","868","image-keyboard-response","262","2.0.0","292984","phpbsvpjdr8","bigger","shrew123","to test reflexes","no","stimuli/24-Inongruent.jpg","m","","","","","right","m","true"
"","null","html-keyboard-response","263","2.0.0","293887","phpbsvpjdr8","bigger","shrew123","to test reflexes","no","<p>Correct!</p>","null","","","","","","",""
"","null","html-keyboard-response","264","2.0.0","294890","phpbsvpjdr8","bigger","shrew123","to test reflexes","no","<div style=""font-size:60px;"">+</div>","null","","","","","","",""
"","951","image-keyboard-response","265","2.0.0","295842","phpbsvpjdr8","bigger","shrew123","to test reflexes","no","stimuli/36-Congruent.jpg","z","","","","","left","z","true"
"","null","html-keyboard-response","266","2.0.0","296745","phpbsvpjdr8","bigger","shrew123","to test reflexes","no","<p>Correct!</p>","null","","","","","","",""
"","null","html-keyboard-response","267","2.0.0","297749","phpbsvpjdr8","bigger","shrew123","to test reflexes","no","<div style=""font-size:60px;"">+</div>","null","","","","","","",""
"","965","image-keyboard-response","268","2.0.0","298715","phpbsvpjdr8","bigger","shrew123","to test reflexes","no","stimuli/1-Congruent.jpg","z","","","","","left","z","true"
"","null","html-keyboard-response","269","2.0.0","299618","phpbsvpjdr8","bigger","shrew123","to test reflexes","no","<p>Correct!</p>","null","","","","","","",""
"","null","html-keyboard-response","270","2.0.0","300622","phpbsvpjdr8","bigger","shrew123","to test reflexes","no","<div style=""font-size:60px;"">+</div>","null","","","","","","",""
"","666","image-keyboard-response","271","2.0.0","301289","phpbsvpjdr8","bigger","shrew123","to test reflexes","no","stimuli/18-Congruent.jpg","z","","","","","left","z","true"
"","null","html-keyboard-response","272","2.0.0","302191","phpbsvpjdr8","bigger","shrew123","to test reflexes","no","<p>Correct!</p>","null","","","","","","",""
"","null","html-keyboard-response","273","2.0.0","303194","phpbsvpjdr8","bigger","shrew123","to test reflexes","no","<div style=""font-size:60px;"">+</div>","null","","","","","","",""
"","814","image-keyboard-response","274","2.0.0","304010","phpbsvpjdr8","bigger","shrew123","to test reflexes","no","stimuli/15-Congruent.jpg","z","","","","","left","z","true"
"","null","html-keyboard-response","275","2.0.0","304913","phpbsvpjdr8","bigger","shrew123","to test reflexes","no","<p>Correct!</p>","null","","","","","","",""
"","null","html-keyboard-response","276","2.0.0","305915","phpbsvpjdr8","bigger","shrew123","to test reflexes","no","<div style=""font-size:60px;"">+</div>","null","","","","","","",""
"","601","image-keyboard-response","277","2.0.0","306518","phpbsvpjdr8","bigger","shrew123","to test reflexes","no","stimuli/1-Inongruent.jpg","m","","","","","right","m","true"
"","null","html-keyboard-response","278","2.0.0","307421","phpbsvpjdr8","bigger","shrew123","to test reflexes","no","<p>Correct!</p>","null","","","","","","",""
"","null","html-keyboard-response","279","2.0.0","308423","phpbsvpjdr8","bigger","shrew123","to test reflexes","no","<div style=""font-size:60px;"">+</div>","null","","","","","","",""
"","657","image-keyboard-response","280","2.0.0","309081","phpbsvpjdr8","bigger","shrew123","to test reflexes","no","stimuli/23-Inongruent.jpg","m","","","","","right","m","true"
"","null","html-keyboard-response","281","2.0.0","309984","phpbsvpjdr8","bigger","shrew123","to test reflexes","no","<p>Correct!</p>","null","","","","","","",""
"","null","html-keyboard-response","282","2.0.0","310987","phpbsvpjdr8","bigger","shrew123","to test reflexes","no","<div style=""font-size:60px;"">+</div>","null","","","","","","",""
"","882","image-keyboard-response","283","2.0.0","311871","phpbsvpjdr8","bigger","shrew123","to test reflexes","no","stimuli/20-Inongruent.jpg","m","","","","","right","m","true"
"","null","html-keyboard-response","284","2.0.0","312773","phpbsvpjdr8","bigger","shrew123","to test reflexes","no","<p>Correct!</p>","null","","","","","","",""
"","null","html-keyboard-response","285","2.0.0","313777","phpbsvpjdr8","bigger","shrew123","to test reflexes","no","<div style=""font-size:60px;"">+</div>","null","","","","","","",""
"","1024","image-keyboard-response","286","2.0.0","314803","phpbsvpjdr8","bigger","shrew123","to test reflexes","no","stimuli/23-Congruent.jpg","z","","","","","left","z","true"
"","null","html-keyboard-response","287","2.0.0","315705","phpbsvpjdr8","bigger","shrew123","to test reflexes","no","<p>Correct!</p>","null","","","","","","",""
"","null","html-keyboard-response","288","2.0.0","316708","phpbsvpjdr8","bigger","shrew123","to test reflexes","no","<div style=""font-size:60px;"">+</div>","null","","","","","","",""
"","851","image-keyboard-response","289","2.0.0","317560","phpbsvpjdr8","bigger","shrew123","to test reflexes","no","stimuli/33-Congruent.jpg","z","","","","","left","z","true"
"","null","html-keyboard-response","290","2.0.0","318462","phpbsvpjdr8","bigger","shrew123","to test reflexes","no","<p>Correct!</p>","null","","","","","","",""
"","null","html-keyboard-response","291","2.0.0","319464","phpbsvpjdr8","bigger","shrew123","to test reflexes","no","<div style=""font-size:60px;"">+</div>","null","","","","","","",""
"","859","image-keyboard-response","292","2.0.0","320324","phpbsvpjdr8","bigger","shrew123","to test reflexes","no","stimuli/34-Congruent.jpg","z","","","","","left","z","true"
"","null","html-keyboard-response","293","2.0.0","321227","phpbsvpjdr8","bigger","shrew123","to test reflexes","no","<p>Correct!</p>","null","","","","","","",""
"","null","html-keyboard-response","294","2.0.0","322230","phpbsvpjdr8","bigger","shrew123","to test reflexes","no","<div style=""font-size:60px;"">+</div>","null","","","","","","",""
"","790","image-keyboard-response","295","2.0.0","323022","phpbsvpjdr8","bigger","shrew123","to test reflexes","no","stimuli/7-Congruent.jpg","z","","","","","left","z","true"
"","null","html-keyboard-response","296","2.0.0","323925","phpbsvpjdr8","bigger","shrew123","to test reflexes","no","<p>Correct!</p>","null","","","","","","",""
"","null","html-keyboard-response","297","2.0.0","324928","phpbsvpjdr8","bigger","shrew123","to test reflexes","no","<div style=""font-size:60px;"">+</div>","null","","","","","","",""
"","839","image-keyboard-response","298","2.0.0","325769","phpbsvpjdr8","bigger","shrew123","to test reflexes","no","stimuli/15-Inongruent.jpg","m","","","","","right","m","true"
"","null","html-keyboard-response","299","2.0.0","326672","phpbsvpjdr8","bigger","shrew123","to test reflexes","no","<p>Correct!</p>","null","","","","","","",""
"","null","html-keyboard-response","300","2.0.0","327676","phpbsvpjdr8","bigger","shrew123","to test reflexes","no","<div style=""font-size:60px;"">+</div>","null","","","","","","",""
"","686","image-keyboard-response","301","2.0.0","328364","phpbsvpjdr8","bigger","shrew123","to test reflexes","no","stimuli/27-Congruent.jpg","z","","","","","left","z","true"
"","null","html-keyboard-response","302","2.0.0","329267","phpbsvpjdr8","bigger","shrew123","to test reflexes","no","<p>Correct!</p>","null","","","","","","",""
"","null","html-keyboard-response","303","2.0.0","330269","phpbsvpjdr8","bigger","shrew123","to test reflexes","no","<div style=""font-size:60px;"">+</div>","null","","","","","","",""
"","577","image-keyboard-response","304","2.0.0","330848","phpbsvpjdr8","bigger","shrew123","to test reflexes","no","stimuli/24-Inongruent.jpg","m","","","","","right","m","true"
"","null","html-keyboard-response","305","2.0.0","331752","phpbsvpjdr8","bigger","shrew123","to test reflexes","no","<p>Correct!</p>","null","","","","","","",""
"","null","html-keyboard-response","306","2.0.0","332755","phpbsvpjdr8","bigger","shrew123","to test reflexes","no","<div style=""font-size:60px;"">+</div>","null","","","","","","",""
"","756","image-keyboard-response","307","2.0.0","333513","phpbsvpjdr8","bigger","shrew123","to test reflexes","no","stimuli/8-Congruent.jpg","z","","","","","left","z","true"
"","null","html-keyboard-response","308","2.0.0","334416","phpbsvpjdr8","bigger","shrew123","to test reflexes","no","<p>Correct!</p>","null","","","","","","",""
"","null","html-keyboard-response","309","2.0.0","335419","phpbsvpjdr8","bigger","shrew123","to test reflexes","no","<div style=""font-size:60px;"">+</div>","null","","","","","","",""
"","888","image-keyboard-response","310","2.0.0","336308","phpbsvpjdr8","bigger","shrew123","to test reflexes","no","stimuli/7-Inongruent.jpg","m","","","","","right","m","true"
"","null","html-keyboard-response","311","2.0.0","337211","phpbsvpjdr8","bigger","shrew123","to test reflexes","no","<p>Correct!</p>","null","","","","","","",""
"","null","html-keyboard-response","312","2.0.0","338214","phpbsvpjdr8","bigger","shrew123","to test reflexes","no","<div style=""font-size:60px;"">+</div>","null","","","","","","",""
"","684","image-keyboard-response","313","2.0.0","338900","phpbsvpjdr8","bigger","shrew123","to test reflexes","no","stimuli/34-Congruent.jpg","z","","","","","left","z","true"
"","null","html-keyboard-response","314","2.0.0","339803","phpbsvpjdr8","bigger","shrew123","to test reflexes","no","<p>Correct!</p>","null","","","","","","",""
"","null","html-keyboard-response","315","2.0.0","340806","phpbsvpjdr8","bigger","shrew123","to test reflexes","no","<div style=""font-size:60px;"">+</div>","null","","","","","","",""
"","955","image-keyboard-response","316","2.0.0","341763","phpbsvpjdr8","bigger","shrew123","to test reflexes","no","stimuli/9-Inongruent.jpg","m","","","","","right","m","true"
"","null","html-keyboard-response","317","2.0.0","342666","phpbsvpjdr8","bigger","shrew123","to test reflexes","no","<p>Correct!</p>","null","","","","","","",""
"","null","html-keyboard-response","318","2.0.0","343668","phpbsvpjdr8","bigger","shrew123","to test reflexes","no","<div style=""font-size:60px;"">+</div>","null","","","","","","",""
"","677","image-keyboard-response","319","2.0.0","344346","phpbsvpjdr8","bigger","shrew123","to test reflexes","no","stimuli/18-Inongruent.jpg","m","","","","","right","m","true"
"","null","html-keyboard-response","320","2.0.0","345249","phpbsvpjdr8","bigger","shrew123","to test reflexes","no","<p>Correct!</p>","null","","","","","","",""
"","null","html-keyboard-response","321","2.0.0","346252","phpbsvpjdr8","bigger","shrew123","to test reflexes","no","<div style=""font-size:60px;"">+</div>","null","","","","","","",""
"","671","image-keyboard-response","322","2.0.0","346925","phpbsvpjdr8","bigger","shrew123","to test reflexes","no","stimuli/22-Inongruent.jpg","m","","","","","right","m","true"
"","null","html-keyboard-response","323","2.0.0","347827","phpbsvpjdr8","bigger","shrew123","to test reflexes","no","<p>Correct!</p>","null","","","","","","",""
"","null","html-keyboard-response","324","2.0.0","348830","phpbsvpjdr8","bigger","shrew123","to test reflexes","no","<div style=""font-size:60px;"">+</div>","null","","","","","","",""
"","767","image-keyboard-response","325","2.0.0","349598","phpbsvpjdr8","bigger","shrew123","to test reflexes","no","stimuli/23-Inongruent.jpg","m","","","","","right","m","true"
"","null","html-keyboard-response","326","2.0.0","350501","phpbsvpjdr8","bigger","shrew123","to test reflexes","no","<p>Correct!</p>","null","","","","","","",""
"","null","html-keyboard-response","327","2.0.0","351504","phpbsvpjdr8","bigger","shrew123","to test reflexes","no","<div style=""font-size:60px;"">+</div>","null","","","","","","",""
"","871","image-keyboard-response","328","2.0.0","352377","phpbsvpjdr8","bigger","shrew123","to test reflexes","no","stimuli/17-Congruent.jpg","z","","","","","left","z","true"
"","null","html-keyboard-response","329","2.0.0","353279","phpbsvpjdr8","bigger","shrew123","to test reflexes","no","<p>Correct!</p>","null","","","","","","",""
"","null","html-keyboard-response","330","2.0.0","354282","phpbsvpjdr8","bigger","shrew123","to test reflexes","no","<div style=""font-size:60px;"">+</div>","null","","","","","","",""
"","695","image-keyboard-response","331","2.0.0","354979","phpbsvpjdr8","bigger","shrew123","to test reflexes","no","stimuli/7-Congruent.jpg","z","","","","","left","z","true"
"","null","html-keyboard-response","332","2.0.0","355882","phpbsvpjdr8","bigger","shrew123","to test reflexes","no","<p>Correct!</p>","null","","","","","","",""
"","null","html-keyboard-response","333","2.0.0","356885","phpbsvpjdr8","bigger","shrew123","to test reflexes","no","<div style=""font-size:60px;"">+</div>","null","","","","","","",""
"","861","image-keyboard-response","334","2.0.0","357748","phpbsvpjdr8","bigger","shrew123","to test reflexes","no","stimuli/25-Congruent.jpg","z","","","","","left","z","true"
"","null","html-keyboard-response","335","2.0.0","358652","phpbsvpjdr8","bigger","shrew123","to test reflexes","no","<p>Correct!</p>","null","","","","","","",""
"","null","html-keyboard-response","336","2.0.0","359653","phpbsvpjdr8","bigger","shrew123","to test reflexes","no","<div style=""font-size:60px;"">+</div>","null","","","","","","",""
"","1355","image-keyboard-response","337","2.0.0","361010","phpbsvpjdr8","bigger","shrew123","to test reflexes","no","stimuli/22-Congruent.jpg","z","","","","","left","z","true"
"","null","html-keyboard-response","338","2.0.0","361912","phpbsvpjdr8","bigger","shrew123","to test reflexes","no","<p>Correct!</p>","null","","","","","","",""
"","null","html-keyboard-response","339","2.0.0","362916","phpbsvpjdr8","bigger","shrew123","to test reflexes","no","<div style=""font-size:60px;"">+</div>","null","","","","","","",""
"","1331","image-keyboard-response","340","2.0.0","364249","phpbsvpjdr8","bigger","shrew123","to test reflexes","no","stimuli/6-Congruent.jpg","z","","","","","left","z","true"
"","null","html-keyboard-response","341","2.0.0","365151","phpbsvpjdr8","bigger","shrew123","to test reflexes","no","<p>Correct!</p>","null","","","","","","",""
"","null","html-keyboard-response","342","2.0.0","366154","phpbsvpjdr8","bigger","shrew123","to test reflexes","no","<div style=""font-size:60px;"">+</div>","null","","","","","","",""
"","725","image-keyboard-response","343","2.0.0","366881","phpbsvpjdr8","bigger","shrew123","to test reflexes","no","stimuli/36-Inongruent.jpg","m","","","","","right","m","true"
"","null","html-keyboard-response","344","2.0.0","367783","phpbsvpjdr8","bigger","shrew123","to test reflexes","no","<p>Correct!</p>","null","","","","","","",""
"","null","html-keyboard-response","345","2.0.0","368787","phpbsvpjdr8","bigger","shrew123","to test reflexes","no","<div style=""font-size:60px;"">+</div>","null","","","","","","",""
"","911","image-keyboard-response","346","2.0.0","369700","phpbsvpjdr8","bigger","shrew123","to test reflexes","no","stimuli/20-Inongruent.jpg","m","","","","","right","m","true"
"","null","html-keyboard-response","347","2.0.0","370603","phpbsvpjdr8","bigger","shrew123","to test reflexes","no","<p>Correct!</p>","null","","","","","","",""
"","null","html-keyboard-response","348","2.0.0","371606","phpbsvpjdr8","bigger","shrew123","to test reflexes","no","<div style=""font-size:60px;"">+</div>","null","","","","","","",""
"","670","image-keyboard-response","349","2.0.0","372278","phpbsvpjdr8","bigger","shrew123","to test reflexes","no","stimuli/30-Congruent.jpg","z","","","","","left","z","true"
"","null","html-keyboard-response","350","2.0.0","373180","phpbsvpjdr8","bigger","shrew123","to test reflexes","no","<p>Correct!</p>","null","","","","","","",""
"","null","html-keyboard-response","351","2.0.0","374183","phpbsvpjdr8","bigger","shrew123","to test reflexes","no","<div style=""font-size:60px;"">+</div>","null","","","","","","",""
"","936","image-keyboard-response","352","2.0.0","375121","phpbsvpjdr8","bigger","shrew123","to test reflexes","no","stimuli/14-Congruent.jpg","z","","","","","left","z","true"
"","null","html-keyboard-response","353","2.0.0","376024","phpbsvpjdr8","bigger","shrew123","to test reflexes","no","<p>Correct!</p>","null","","","","","","",""
"","null","html-keyboard-response","354","2.0.0","377027","phpbsvpjdr8","bigger","shrew123","to test reflexes","no","<div style=""font-size:60px;"">+</div>","null","","","","","","",""
"","622","image-keyboard-response","355","2.0.0","377651","phpbsvpjdr8","bigger","shrew123","to test reflexes","no","stimuli/32-Congruent.jpg","z","","","","","left","z","true"
"","null","html-keyboard-response","356","2.0.0","378554","phpbsvpjdr8","bigger","shrew123","to test reflexes","no","<p>Correct!</p>","null","","","","","","",""
"","null","html-keyboard-response","357","2.0.0","379556","phpbsvpjdr8","bigger","shrew123","to test reflexes","no","<div style=""font-size:60px;"">+</div>","null","","","","","","",""
"","857","image-keyboard-response","358","2.0.0","380415","phpbsvpjdr8","bigger","shrew123","to test reflexes","no","stimuli/20-Congruent.jpg","z","","","","","left","z","true"
"","null","html-keyboard-response","359","2.0.0","381318","phpbsvpjdr8","bigger","shrew123","to test reflexes","no","<p>Correct!</p>","null","","","","","","",""
"","null","html-keyboard-response","360","2.0.0","382321","phpbsvpjdr8","bigger","shrew123","to test reflexes","no","<div style=""font-size:60px;"">+</div>","null","","","","","","",""
"","683","image-keyboard-response","361","2.0.0","383006","phpbsvpjdr8","bigger","shrew123","to test reflexes","no","stimuli/16-Inongruent.jpg","m","","","","","right","m","true"
"","null","html-keyboard-response","362","2.0.0","383909","phpbsvpjdr8","bigger","shrew123","to test reflexes","no","<p>Correct!</p>","null","","","","","","",""
"","null","html-keyboard-response","363","2.0.0","384912","phpbsvpjdr8","bigger","shrew123","to test reflexes","no","<div style=""font-size:60px;"">+</div>","null","","","","","","",""
"","658","image-keyboard-response","364","2.0.0","385572","phpbsvpjdr8","bigger","shrew123","to test reflexes","no","stimuli/14-Congruent.jpg","z","","","","","left","z","true"
"","null","html-keyboard-response","365","2.0.0","386475","phpbsvpjdr8","bigger","shrew123","to test reflexes","no","<p>Correct!</p>","null","","","","","","",""
"","null","html-keyboard-response","366","2.0.0","387478","phpbsvpjdr8","bigger","shrew123","to test reflexes","no","<div style=""font-size:60px;"">+</div>","null","","","","","","",""
"","654","image-keyboard-response","367","2.0.0","388133","phpbsvpjdr8","bigger","shrew123","to test reflexes","no","stimuli/5-Inongruent.jpg","m","","","","","right","m","true"
"","null","html-keyboard-response","368","2.0.0","389036","phpbsvpjdr8","bigger","shrew123","to test reflexes","no","<p>Correct!</p>","null","","","","","","",""
"","null","html-keyboard-response","369","2.0.0","390038","phpbsvpjdr8","bigger","shrew123","to test reflexes","no","<div style=""font-size:60px;"">+</div>","null","","","","","","",""
"","631","image-keyboard-response","370","2.0.0","390672","phpbsvpjdr8","bigger","shrew123","to test reflexes","no","stimuli/17-Inongruent.jpg","m","","","","","right","m","true"
"","null","html-keyboard-response","371","2.0.0","391575","phpbsvpjdr8","bigger","shrew123","to test reflexes","no","<p>Correct!</p>","null","","","","","","",""
"","null","html-keyboard-response","372","2.0.0","392578","phpbsvpjdr8","bigger","shrew123","to test reflexes","no","<div style=""font-size:60px;"">+</div>","null","","","","","","",""
"","704","image-keyboard-response","373","2.0.0","393284","phpbsvpjdr8","bigger","shrew123","to test reflexes","no","stimuli/3-Inongruent.jpg","m","","","","","right","m","true"
"","null","html-keyboard-response","374","2.0.0","394188","phpbsvpjdr8","bigger","shrew123","to test reflexes","no","<p>Correct!</p>","null","","","","","","",""
"","null","html-keyboard-response","375","2.0.0","395191","phpbsvpjdr8","bigger","shrew123","to test reflexes","no","<div style=""font-size:60px;"">+</div>","null","","","","","","",""
"","654","image-keyboard-response","376","2.0.0","395847","phpbsvpjdr8","bigger","shrew123","to test reflexes","no","stimuli/8-Congruent.jpg","z","","","","","left","z","true"
"","null","html-keyboard-response","377","2.0.0","396751","phpbsvpjdr8","bigger","shrew123","to test reflexes","no","<p>Correct!</p>","null","","","","","","",""
"","null","html-keyboard-response","378","2.0.0","397754","phpbsvpjdr8","bigger","shrew123","to test reflexes","no","<div style=""font-size:60px;"">+</div>","null","","","","","","",""
"","671","image-keyboard-response","379","2.0.0","398427","phpbsvpjdr8","bigger","shrew123","to test reflexes","no","stimuli/3-Congruent.jpg","z","","","","","left","z","true"
"","null","html-keyboard-response","380","2.0.0","399329","phpbsvpjdr8","bigger","shrew123","to test reflexes","no","<p>Correct!</p>","null","","","","","","",""
"","null","html-keyboard-response","381","2.0.0","400333","phpbsvpjdr8","bigger","shrew123","to test reflexes","no","<div style=""font-size:60px;"">+</div>","null","","","","","","",""
"","513","image-keyboard-response","382","2.0.0","400847","phpbsvpjdr8","bigger","shrew123","to test reflexes","no","stimuli/5-Inongruent.jpg","m","","","","","right","m","true"
"","null","html-keyboard-response","383","2.0.0","401750","phpbsvpjdr8","bigger","shrew123","to test reflexes","no","<p>Correct!</p>","null","","","","","","",""
"","null","html-keyboard-response","384","2.0.0","402753","phpbsvpjdr8","bigger","shrew123","to test reflexes","no","<div style=""font-size:60px;"">+</div>","null","","","","","","",""
"","887","image-keyboard-response","385","2.0.0","403642","phpbsvpjdr8","bigger","shrew123","to test reflexes","no","stimuli/33-Inongruent.jpg","m","","","","","right","m","true"
"","null","html-keyboard-response","386","2.0.0","404544","phpbsvpjdr8","bigger","shrew123","to test reflexes","no","<p>Correct!</p>","null","","","","","","",""
"","null","html-keyboard-response","387","2.0.0","405547","phpbsvpjdr8","bigger","shrew123","to test reflexes","no","<div style=""font-size:60px;"">+</div>","null","","","","","","",""
"","652","image-keyboard-response","388","2.0.0","406201","phpbsvpjdr8","bigger","shrew123","to test reflexes","no","stimuli/29-Inongruent.jpg","m","","","","","right","m","true"
"","null","html-keyboard-response","389","2.0.0","407104","phpbsvpjdr8","bigger","shrew123","to test reflexes","no","<p>Correct!</p>","null","","","","","","",""
"","null","html-keyboard-response","390","2.0.0","408108","phpbsvpjdr8","bigger","shrew123","to test reflexes","no","<div style=""font-size:60px;"">+</div>","null","","","","","","",""
"","653","image-keyboard-response","391","2.0.0","408762","phpbsvpjdr8","bigger","shrew123","to test reflexes","no","stimuli/36-Congruent.jpg","z","","","","","left","z","true"
"","null","html-keyboard-response","392","2.0.0","409665","phpbsvpjdr8","bigger","shrew123","to test reflexes","no","<p>Correct!</p>","null","","","","","","",""
"","null","html-keyboard-response","393","2.0.0","410667","phpbsvpjdr8","bigger","shrew123","to test reflexes","no","<div style=""font-size:60px;"">+</div>","null","","","","","","",""
"","587","image-keyboard-response","394","2.0.0","411255","phpbsvpjdr8","bigger","shrew123","to test reflexes","no","stimuli/11-Inongruent.jpg","m","","","","","right","m","true"
"","null","html-keyboard-response","395","2.0.0","412158","phpbsvpjdr8","bigger","shrew123","to test reflexes","no","<p>Correct!</p>","null","","","","","","",""
"","null","html-keyboard-response","396","2.0.0","413161","phpbsvpjdr8","bigger","shrew123","to test reflexes","no","<div style=""font-size:60px;"">+</div>","null","","","","","","",""
"","679","image-keyboard-response","397","2.0.0","413843","phpbsvpjdr8","bigger","shrew123","to test reflexes","no","stimuli/21-Congruent.jpg","z","","","","","left","z","true"
"","null","html-keyboard-response","398","2.0.0","414745","phpbsvpjdr8","bigger","shrew123","to test reflexes","no","<p>Correct!</p>","null","","","","","","",""
"","null","html-keyboard-response","399","2.0.0","415748","phpbsvpjdr8","bigger","shrew123","to test reflexes","no","<div style=""font-size:60px;"">+</div>","null","","","","","","",""
"","660","image-keyboard-response","400","2.0.0","416410","phpbsvpjdr8","bigger","shrew123","to test reflexes","no","stimuli/8-Inongruent.jpg","m","","","","","right","m","true"
"","null","html-keyboard-response","401","2.0.0","417312","phpbsvpjdr8","bigger","shrew123","to test reflexes","no","<p>Correct!</p>","null","","","","","","",""
"","null","html-keyboard-response","402","2.0.0","418315","phpbsvpjdr8","bigger","shrew123","to test reflexes","no","<div style=""font-size:60px;"">+</div>","null","","","","","","",""
"","949","image-keyboard-response","403","2.0.0","419266","phpbsvpjdr8","bigger","shrew123","to test reflexes","no","stimuli/12-Inongruent.jpg","m","","","","","right","m","true"
"","null","html-keyboard-response","404","2.0.0","420170","phpbsvpjdr8","bigger","shrew123","to test reflexes","no","<p>Correct!</p>","null","","","","","","",""
"","null","html-keyboard-response","405","2.0.0","421173","phpbsvpjdr8","bigger","shrew123","to test reflexes","no","<div style=""font-size:60px;"">+</div>","null","","","","","","",""
"","673","image-keyboard-response","406","2.0.0","421848","phpbsvpjdr8","bigger","shrew123","to test reflexes","no","stimuli/18-Congruent.jpg","z","","","","","left","z","true"
"","null","html-keyboard-response","407","2.0.0","422751","phpbsvpjdr8","bigger","shrew123","to test reflexes","no","<p>Correct!</p>","null","","","","","","",""
"","null","html-keyboard-response","408","2.0.0","423754","phpbsvpjdr8","bigger","shrew123","to test reflexes","no","<div style=""font-size:60px;"">+</div>","null","","","","","","",""
"","917","image-keyboard-response","409","2.0.0","424673","phpbsvpjdr8","bigger","shrew123","to test reflexes","no","stimuli/28-Congruent.jpg","z","","","","","left","z","true"
"","null","html-keyboard-response","410","2.0.0","425576","phpbsvpjdr8","bigger","shrew123","to test reflexes","no","<p>Correct!</p>","null","","","","","","",""
"","null","html-keyboard-response","411","2.0.0","426579","phpbsvpjdr8","bigger","shrew123","to test reflexes","no","<div style=""font-size:60px;"">+</div>","null","","","","","","",""
"","650","image-keyboard-response","412","2.0.0","427231","phpbsvpjdr8","bigger","shrew123","to test reflexes","no","stimuli/24-Congruent.jpg","z","","","","","left","z","true"
"","null","html-keyboard-response","413","2.0.0","428134","phpbsvpjdr8","bigger","shrew123","to test reflexes","no","<p>Correct!</p>","null","","","","","","",""
"","null","html-keyboard-response","414","2.0.0","429137","phpbsvpjdr8","bigger","shrew123","to test reflexes","no","<div style=""font-size:60px;"">+</div>","null","","","","","","",""
"","685","image-keyboard-response","415","2.0.0","429824","phpbsvpjdr8","bigger","shrew123","to test reflexes","no","stimuli/8-Inongruent.jpg","m","","","","","right","m","true"
"","null","html-keyboard-response","416","2.0.0","430727","phpbsvpjdr8","bigger","shrew123","to test reflexes","no","<p>Correct!</p>","null","","","","","","",""
"","null","html-keyboard-response","417","2.0.0","431730","phpbsvpjdr8","bigger","shrew123","to test reflexes","no","<div style=""font-size:60px;"">+</div>","null","","","","","","",""
"","628","image-keyboard-response","418","2.0.0","432361","phpbsvpjdr8","bigger","shrew123","to test reflexes","no","stimuli/3-Congruent.jpg","z","","","","","left","z","true"
"","null","html-keyboard-response","419","2.0.0","433264","phpbsvpjdr8","bigger","shrew123","to test reflexes","no","<p>Correct!</p>","null","","","","","","",""
"","null","html-keyboard-response","420","2.0.0","434267","phpbsvpjdr8","bigger","shrew123","to test reflexes","no","<div style=""font-size:60px;"">+</div>","null","","","","","","",""
"","680","image-keyboard-response","421","2.0.0","434949","phpbsvpjdr8","bigger","shrew123","to test reflexes","no","stimuli/22-Inongruent.jpg","m","","","","","right","m","true"
"","null","html-keyboard-response","422","2.0.0","435852","phpbsvpjdr8","bigger","shrew123","to test reflexes","no","<p>Correct!</p>","null","","","","","","",""
"","null","html-keyboard-response","423","2.0.0","436855","phpbsvpjdr8","bigger","shrew123","to test reflexes","no","<div style=""font-size:60px;"">+</div>","null","","","","","","",""
"","836","image-keyboard-response","424","2.0.0","437693","phpbsvpjdr8","bigger","shrew123","to test reflexes","no","stimuli/12-Inongruent.jpg","m","","","","","right","m","true"
"","null","html-keyboard-response","425","2.0.0","438596","phpbsvpjdr8","bigger","shrew123","to test reflexes","no","<p>Correct!</p>","null","","","","","","",""
"","null","html-keyboard-response","426","2.0.0","439598","phpbsvpjdr8","bigger","shrew123","to test reflexes","no","<div style=""font-size:60px;"">+</div>","null","","","","","","",""
"","965","image-keyboard-response","427","2.0.0","440564","phpbsvpjdr8","bigger","shrew123","to test reflexes","no","stimuli/34-Inongruent.jpg","m","","","","","right","m","true"
"","null","html-keyboard-response","428","2.0.0","441467","phpbsvpjdr8","bigger","shrew123","to test reflexes","no","<p>Correct!</p>","null","","","","","","",""
"","null","html-keyboard-response","429","2.0.0","442470","phpbsvpjdr8","bigger","shrew123","to test reflexes","no","<div style=""font-size:60px;"">+</div>","null","","","","","","",""
"","1058","image-keyboard-response","430","2.0.0","443530","phpbsvpjdr8","bigger","shrew123","to test reflexes","no","stimuli/15-Inongruent.jpg","m","","","","","right","m","true"
"","null","html-keyboard-response","431","2.0.0","444433","phpbsvpjdr8","bigger","shrew123","to test reflexes","no","<p>Correct!</p>","null","","","","","","",""
"","null","html-keyboard-response","432","2.0.0","445435","phpbsvpjdr8","bigger","shrew123","to test reflexes","no","<div style=""font-size:60px;"">+</div>","null","","","","","","",""
"","977","image-keyboard-response","433","2.0.0","446415","phpbsvpjdr8","bigger","shrew123","to test reflexes","no","stimuli/21-Inongruent.jpg","m","","","","","right","m","true"
"","null","html-keyboard-response","434","2.0.0","447317","phpbsvpjdr8","bigger","shrew123","to test reflexes","no","<p>Correct!</p>","null","","","","","","",""
"","null","html-keyboard-response","435","2.0.0","448320","phpbsvpjdr8","bigger","shrew123","to test reflexes","no","<div style=""font-size:60px;"">+</div>","null","","","","","","",""
"","673","image-keyboard-response","436","2.0.0","448995","phpbsvpjdr8","bigger","shrew123","to test reflexes","no","stimuli/2-Inongruent.jpg","m","","","","","right","m","true"
"","null","html-keyboard-response","437","2.0.0","449898","phpbsvpjdr8","bigger","shrew123","to test reflexes","no","<p>Correct!</p>","null","","","","","","",""
"","7414","html-keyboard-response","438","2.0.0","457314","phpbsvpjdr8","bigger","shrew123","to test reflexes","no","<p>You have completed the experiment!</p>
              <p>Your accuracy was: 100%.</p>
              <p>Thank you for participating.</p>
              <p>Press any key to continue.</p>","m","","","","","","",""
"","28677","survey-text","439","2.0.0","485994","phpbsvpjdr8","bigger","shrew123","to test reflexes","no","","{""participant_thoughts"":""to test reflexes""}","","","","","","",""
"","8903","survey-text","440","2.0.0","494899","phpbsvpjdr8","bigger","shrew123","to test reflexes","no","","{""participant_difficulties"":""no""}","","","","","","",""
"","8091","html-keyboard-response","441","2.0.0","502992","phpbsvpjdr8","bigger","shrew123","to test reflexes","no","<p>The purpose of this experiment is to determine if the real world size of a familiar object is automatically processed when viewed.</p><p>Thank you for participating!</p>"," ","","","","","","",""
