"success","rt","trial_type","trial_index","plugin_version","time_elapsed","random_id","condition","participant","participant_thoughts","participant_difficulties","stimulus","response","timeout","failed_images","failed_audio","failed_video","correct_response","correct_response_key","correct"
"true","772","fullscreen","0","null","1789","pm9rorbldaw","bigger","shark","Does our inherit knowledge on an item effect our decision making skills","","","","","","","","","",""
"","1444","html-keyboard-response","1","2.0.0","3234","pm9rorbldaw","bigger","shark","Does our inherit knowledge on an item effect our decision making skills","","Welcome to the Size Stroop experiment. Press any key to begin."," ","","","","","","",""
"","null","html-keyboard-response","2","2.0.0","4237","pm9rorbldaw","bigger","shark","Does our inherit knowledge on an item effect our decision making skills","","This trial will be in fullscreen mode.","null","","","","","","",""
"","16043","survey-text","3","2.0.0","20283","pm9rorbldaw","bigger","shark","Does our inherit knowledge on an item effect our decision making skills","","","{""participant_id"":""shark""}","","","","","","",""
"","2280","html-keyboard-response","4","2.0.0","22565","pm9rorbldaw","bigger","shark","Does our inherit knowledge on an item effect our decision making skills","","<p>In this experiment, two images will appear on the screen. Identify the <strong>larger</strong> images.</p>
              <p>If the image on the left is larger, press ""z"". If the image on the right is larger, press ""m"".</p>
              <p>Press any key to begin.</p>"," ","","","","","","",""
"true","","preload","5","2.0.0","22575","pm9rorbldaw","bigger","shark","Does our inherit knowledge on an item effect our decision making skills","","","","false","[]","[]","[]","","",""
"","null","html-keyboard-response","6","2.0.0","23587","pm9rorbldaw","bigger","shark","Does our inherit knowledge on an item effect our decision making skills","","<div style=""font-size:60px;"">+</div>","null","","","","","","",""
"","2156","image-keyboard-response","7","2.0.0","25745","pm9rorbldaw","bigger","shark","Does our inherit knowledge on an item effect our decision making skills","","stimuli/10-Congruent.jpg","z","","","","","left","z","true"
"","null","html-keyboard-response","8","2.0.0","26648","pm9rorbldaw","bigger","shark","Does our inherit knowledge on an item effect our decision making skills","","<p>Correct!</p>","null","","","","","","",""
"","null","html-keyboard-response","9","2.0.0","27654","pm9rorbldaw","bigger","shark","Does our inherit knowledge on an item effect our decision making skills","","<div style=""font-size:60px;"">+</div>","null","","","","","","",""
"","990","image-keyboard-response","10","2.0.0","28644","pm9rorbldaw","bigger","shark","Does our inherit knowledge on an item effect our decision making skills","","stimuli/14-Inongruent.jpg","m","","","","","right","m","true"
"","null","html-keyboard-response","11","2.0.0","29552","pm9rorbldaw","bigger","shark","Does our inherit knowledge on an item effect our decision making skills","","<p>Correct!</p>","null","","","","","","",""
"","null","html-keyboard-response","12","2.0.0","30557","pm9rorbldaw","bigger","shark","Does our inherit knowledge on an item effect our decision making skills","","<div style=""font-size:60px;"">+</div>","null","","","","","","",""
"","738","image-keyboard-response","13","2.0.0","31296","pm9rorbldaw","bigger","shark","Does our inherit knowledge on an item effect our decision making skills","","stimuli/2-Inongruent.jpg","m","","","","","right","m","true"
"","null","html-keyboard-response","14","2.0.0","32202","pm9rorbldaw","bigger","shark","Does our inherit knowledge on an item effect our decision making skills","","<p>Correct!</p>","null","","","","","","",""
"","null","html-keyboard-response","15","2.0.0","33209","pm9rorbldaw","bigger","shark","Does our inherit knowledge on an item effect our decision making skills","","<div style=""font-size:60px;"">+</div>","null","","","","","","",""
"","832","image-keyboard-response","16","2.0.0","34044","pm9rorbldaw","bigger","shark","Does our inherit knowledge on an item effect our decision making skills","","stimuli/29-Congruent.jpg","z","","","","","left","z","true"
"","null","html-keyboard-response","17","2.0.0","34954","pm9rorbldaw","bigger","shark","Does our inherit knowledge on an item effect our decision making skills","","<p>Correct!</p>","null","","","","","","",""
"","null","html-keyboard-response","18","2.0.0","35959","pm9rorbldaw","bigger","shark","Does our inherit knowledge on an item effect our decision making skills","","<div style=""font-size:60px;"">+</div>","null","","","","","","",""
"","609","image-keyboard-response","19","2.0.0","36569","pm9rorbldaw","bigger","shark","Does our inherit knowledge on an item effect our decision making skills","","stimuli/19-Inongruent.jpg","m","","","","","right","m","true"
"","null","html-keyboard-response","20","2.0.0","37481","pm9rorbldaw","bigger","shark","Does our inherit knowledge on an item effect our decision making skills","","<p>Correct!</p>","null","","","","","","",""
"","null","html-keyboard-response","21","2.0.0","38486","pm9rorbldaw","bigger","shark","Does our inherit knowledge on an item effect our decision making skills","","<div style=""font-size:60px;"">+</div>","null","","","","","","",""
"","750","image-keyboard-response","22","2.0.0","39237","pm9rorbldaw","bigger","shark","Does our inherit knowledge on an item effect our decision making skills","","stimuli/34-Congruent.jpg","z","","","","","left","z","true"
"","null","html-keyboard-response","23","2.0.0","40150","pm9rorbldaw","bigger","shark","Does our inherit knowledge on an item effect our decision making skills","","<p>Correct!</p>","null","","","","","","",""
"","null","html-keyboard-response","24","2.0.0","41167","pm9rorbldaw","bigger","shark","Does our inherit knowledge on an item effect our decision making skills","","<div style=""font-size:60px;"">+</div>","null","","","","","","",""
"","691","image-keyboard-response","25","2.0.0","41859","pm9rorbldaw","bigger","shark","Does our inherit knowledge on an item effect our decision making skills","","stimuli/27-Inongruent.jpg","m","","","","","right","m","true"
"","null","html-keyboard-response","26","2.0.0","42769","pm9rorbldaw","bigger","shark","Does our inherit knowledge on an item effect our decision making skills","","<p>Correct!</p>","null","","","","","","",""
"","null","html-keyboard-response","27","2.0.0","43781","pm9rorbldaw","bigger","shark","Does our inherit knowledge on an item effect our decision making skills","","<div style=""font-size:60px;"">+</div>","null","","","","","","",""
"","641","image-keyboard-response","28","2.0.0","44422","pm9rorbldaw","bigger","shark","Does our inherit knowledge on an item effect our decision making skills","","stimuli/20-Inongruent.jpg","m","","","","","right","m","true"
"","null","html-keyboard-response","29","2.0.0","45335","pm9rorbldaw","bigger","shark","Does our inherit knowledge on an item effect our decision making skills","","<p>Correct!</p>","null","","","","","","",""
"","null","html-keyboard-response","30","2.0.0","46349","pm9rorbldaw","bigger","shark","Does our inherit knowledge on an item effect our decision making skills","","<div style=""font-size:60px;"">+</div>","null","","","","","","",""
"","435","image-keyboard-response","31","2.0.0","46785","pm9rorbldaw","bigger","shark","Does our inherit knowledge on an item effect our decision making skills","","stimuli/18-Congruent.jpg","z","","","","","left","z","true"
"","null","html-keyboard-response","32","2.0.0","47687","pm9rorbldaw","bigger","shark","Does our inherit knowledge on an item effect our decision making skills","","<p>Correct!</p>","null","","","","","","",""
"","null","html-keyboard-response","33","2.0.0","48688","pm9rorbldaw","bigger","shark","Does our inherit knowledge on an item effect our decision making skills","","<div style=""font-size:60px;"">+</div>","null","","","","","","",""
"","473","image-keyboard-response","34","2.0.0","49163","pm9rorbldaw","bigger","shark","Does our inherit knowledge on an item effect our decision making skills","","stimuli/34-Inongruent.jpg","m","","","","","right","m","true"
"","null","html-keyboard-response","35","2.0.0","50068","pm9rorbldaw","bigger","shark","Does our inherit knowledge on an item effect our decision making skills","","<p>Correct!</p>","null","","","","","","",""
"","null","html-keyboard-response","36","2.0.0","51070","pm9rorbldaw","bigger","shark","Does our inherit knowledge on an item effect our decision making skills","","<div style=""font-size:60px;"">+</div>","null","","","","","","",""
"","668","image-keyboard-response","37","2.0.0","51738","pm9rorbldaw","bigger","shark","Does our inherit knowledge on an item effect our decision making skills","","stimuli/16-Congruent.jpg","z","","","","","left","z","true"
"","null","html-keyboard-response","38","2.0.0","52653","pm9rorbldaw","bigger","shark","Does our inherit knowledge on an item effect our decision making skills","","<p>Correct!</p>","null","","","","","","",""
"","null","html-keyboard-response","39","2.0.0","53659","pm9rorbldaw","bigger","shark","Does our inherit knowledge on an item effect our decision making skills","","<div style=""font-size:60px;"">+</div>","null","","","","","","",""
"","407","image-keyboard-response","40","2.0.0","54068","pm9rorbldaw","bigger","shark","Does our inherit knowledge on an item effect our decision making skills","","stimuli/16-Inongruent.jpg","m","","","","","right","m","true"
"","null","html-keyboard-response","41","2.0.0","54983","pm9rorbldaw","bigger","shark","Does our inherit knowledge on an item effect our decision making skills","","<p>Correct!</p>","null","","","","","","",""
"","null","html-keyboard-response","42","2.0.0","55986","pm9rorbldaw","bigger","shark","Does our inherit knowledge on an item effect our decision making skills","","<div style=""font-size:60px;"">+</div>","null","","","","","","",""
"","683","image-keyboard-response","43","2.0.0","56670","pm9rorbldaw","bigger","shark","Does our inherit knowledge on an item effect our decision making skills","","stimuli/3-Inongruent.jpg","m","","","","","right","m","true"
"","null","html-keyboard-response","44","2.0.0","57578","pm9rorbldaw","bigger","shark","Does our inherit knowledge on an item effect our decision making skills","","<p>Correct!</p>","null","","","","","","",""
"","null","html-keyboard-response","45","2.0.0","58584","pm9rorbldaw","bigger","shark","Does our inherit knowledge on an item effect our decision making skills","","<div style=""font-size:60px;"">+</div>","null","","","","","","",""
"","504","image-keyboard-response","46","2.0.0","59089","pm9rorbldaw","bigger","shark","Does our inherit knowledge on an item effect our decision making skills","","stimuli/36-Congruent.jpg","z","","","","","left","z","true"
"","null","html-keyboard-response","47","2.0.0","59998","pm9rorbldaw","bigger","shark","Does our inherit knowledge on an item effect our decision making skills","","<p>Correct!</p>","null","","","","","","",""
"","null","html-keyboard-response","48","2.0.0","61017","pm9rorbldaw","bigger","shark","Does our inherit knowledge on an item effect our decision making skills","","<div style=""font-size:60px;"">+</div>","null","","","","","","",""
"","556","image-keyboard-response","49","2.0.0","61573","pm9rorbldaw","bigger","shark","Does our inherit knowledge on an item effect our decision making skills","","stimuli/13-Congruent.jpg","z","","","","","left","z","true"
"","null","html-keyboard-response","50","2.0.0","62483","pm9rorbldaw","bigger","shark","Does our inherit knowledge on an item effect our decision making skills","","<p>Correct!</p>","null","","","","","","",""
"","null","html-keyboard-response","51","2.0.0","63494","pm9rorbldaw","bigger","shark","Does our inherit knowledge on an item effect our decision making skills","","<div style=""font-size:60px;"">+</div>","null","","","","","","",""
"","597","image-keyboard-response","52","2.0.0","64092","pm9rorbldaw","bigger","shark","Does our inherit knowledge on an item effect our decision making skills","","stimuli/29-Congruent.jpg","z","","","","","left","z","true"
"","null","html-keyboard-response","53","2.0.0","64997","pm9rorbldaw","bigger","shark","Does our inherit knowledge on an item effect our decision making skills","","<p>Correct!</p>","null","","","","","","",""
"","null","html-keyboard-response","54","2.0.0","66013","pm9rorbldaw","bigger","shark","Does our inherit knowledge on an item effect our decision making skills","","<div style=""font-size:60px;"">+</div>","null","","","","","","",""
"","485","image-keyboard-response","55","2.0.0","66498","pm9rorbldaw","bigger","shark","Does our inherit knowledge on an item effect our decision making skills","","stimuli/32-Inongruent.jpg","m","","","","","right","m","true"
"","null","html-keyboard-response","56","2.0.0","67404","pm9rorbldaw","bigger","shark","Does our inherit knowledge on an item effect our decision making skills","","<p>Correct!</p>","null","","","","","","",""
"","null","html-keyboard-response","57","2.0.0","68416","pm9rorbldaw","bigger","shark","Does our inherit knowledge on an item effect our decision making skills","","<div style=""font-size:60px;"">+</div>","null","","","","","","",""
"","528","image-keyboard-response","58","2.0.0","68946","pm9rorbldaw","bigger","shark","Does our inherit knowledge on an item effect our decision making skills","","stimuli/15-Inongruent.jpg","m","","","","","right","m","true"
"","null","html-keyboard-response","59","2.0.0","69859","pm9rorbldaw","bigger","shark","Does our inherit knowledge on an item effect our decision making skills","","<p>Correct!</p>","null","","","","","","",""
"","null","html-keyboard-response","60","2.0.0","70863","pm9rorbldaw","bigger","shark","Does our inherit knowledge on an item effect our decision making skills","","<div style=""font-size:60px;"">+</div>","null","","","","","","",""
"","479","image-keyboard-response","61","2.0.0","71343","pm9rorbldaw","bigger","shark","Does our inherit knowledge on an item effect our decision making skills","","stimuli/35-Congruent.jpg","z","","","","","left","z","true"
"","null","html-keyboard-response","62","2.0.0","72250","pm9rorbldaw","bigger","shark","Does our inherit knowledge on an item effect our decision making skills","","<p>Correct!</p>","null","","","","","","",""
"","null","html-keyboard-response","63","2.0.0","73264","pm9rorbldaw","bigger","shark","Does our inherit knowledge on an item effect our decision making skills","","<div style=""font-size:60px;"">+</div>","null","","","","","","",""
"","406","image-keyboard-response","64","2.0.0","73671","pm9rorbldaw","bigger","shark","Does our inherit knowledge on an item effect our decision making skills","","stimuli/36-Inongruent.jpg","m","","","","","right","m","true"
"","null","html-keyboard-response","65","2.0.0","74581","pm9rorbldaw","bigger","shark","Does our inherit knowledge on an item effect our decision making skills","","<p>Correct!</p>","null","","","","","","",""
"","null","html-keyboard-response","66","2.0.0","75587","pm9rorbldaw","bigger","shark","Does our inherit knowledge on an item effect our decision making skills","","<div style=""font-size:60px;"">+</div>","null","","","","","","",""
"","607","image-keyboard-response","67","2.0.0","76194","pm9rorbldaw","bigger","shark","Does our inherit knowledge on an item effect our decision making skills","","stimuli/26-Inongruent.jpg","m","","","","","right","m","true"
"","null","html-keyboard-response","68","2.0.0","77100","pm9rorbldaw","bigger","shark","Does our inherit knowledge on an item effect our decision making skills","","<p>Correct!</p>","null","","","","","","",""
"","null","html-keyboard-response","69","2.0.0","78106","pm9rorbldaw","bigger","shark","Does our inherit knowledge on an item effect our decision making skills","","<div style=""font-size:60px;"">+</div>","null","","","","","","",""
"","1165","image-keyboard-response","70","2.0.0","79271","pm9rorbldaw","bigger","shark","Does our inherit knowledge on an item effect our decision making skills","","stimuli/9-Inongruent.jpg","m","","","","","right","m","true"
"","null","html-keyboard-response","71","2.0.0","80172","pm9rorbldaw","bigger","shark","Does our inherit knowledge on an item effect our decision making skills","","<p>Correct!</p>","null","","","","","","",""
"","null","html-keyboard-response","72","2.0.0","81186","pm9rorbldaw","bigger","shark","Does our inherit knowledge on an item effect our decision making skills","","<div style=""font-size:60px;"">+</div>","null","","","","","","",""
"","723","image-keyboard-response","73","2.0.0","81910","pm9rorbldaw","bigger","shark","Does our inherit knowledge on an item effect our decision making skills","","stimuli/32-Congruent.jpg","z","","","","","left","z","true"
"","null","html-keyboard-response","74","2.0.0","82822","pm9rorbldaw","bigger","shark","Does our inherit knowledge on an item effect our decision making skills","","<p>Correct!</p>","null","","","","","","",""
"","null","html-keyboard-response","75","2.0.0","83835","pm9rorbldaw","bigger","shark","Does our inherit knowledge on an item effect our decision making skills","","<div style=""font-size:60px;"">+</div>","null","","","","","","",""
"","1681","image-keyboard-response","76","2.0.0","85517","pm9rorbldaw","bigger","shark","Does our inherit knowledge on an item effect our decision making skills","","stimuli/17-Congruent.jpg","z","","","","","left","z","true"
"","null","html-keyboard-response","77","2.0.0","86428","pm9rorbldaw","bigger","shark","Does our inherit knowledge on an item effect our decision making skills","","<p>Correct!</p>","null","","","","","","",""
"","null","html-keyboard-response","78","2.0.0","87441","pm9rorbldaw","bigger","shark","Does our inherit knowledge on an item effect our decision making skills","","<div style=""font-size:60px;"">+</div>","null","","","","","","",""
"","2241","image-keyboard-response","79","2.0.0","89683","pm9rorbldaw","bigger","shark","Does our inherit knowledge on an item effect our decision making skills","","stimuli/6-Congruent.jpg","z","","","","","left","z","true"
"","null","html-keyboard-response","80","2.0.0","90585","pm9rorbldaw","bigger","shark","Does our inherit knowledge on an item effect our decision making skills","","<p>Correct!</p>","null","","","","","","",""
"","null","html-keyboard-response","81","2.0.0","91595","pm9rorbldaw","bigger","shark","Does our inherit knowledge on an item effect our decision making skills","","<div style=""font-size:60px;"">+</div>","null","","","","","","",""
"","1232","image-keyboard-response","82","2.0.0","92828","pm9rorbldaw","bigger","shark","Does our inherit knowledge on an item effect our decision making skills","","stimuli/33-Congruent.jpg","z","","","","","left","z","true"
"","null","html-keyboard-response","83","2.0.0","93731","pm9rorbldaw","bigger","shark","Does our inherit knowledge on an item effect our decision making skills","","<p>Correct!</p>","null","","","","","","",""
"","null","html-keyboard-response","84","2.0.0","94736","pm9rorbldaw","bigger","shark","Does our inherit knowledge on an item effect our decision making skills","","<div style=""font-size:60px;"">+</div>","null","","","","","","",""
"","1599","image-keyboard-response","85","2.0.0","96335","pm9rorbldaw","bigger","shark","Does our inherit knowledge on an item effect our decision making skills","","stimuli/22-Inongruent.jpg","m","","","","","right","m","true"
"","null","html-keyboard-response","86","2.0.0","97238","pm9rorbldaw","bigger","shark","Does our inherit knowledge on an item effect our decision making skills","","<p>Correct!</p>","null","","","","","","",""
"","null","html-keyboard-response","87","2.0.0","98251","pm9rorbldaw","bigger","shark","Does our inherit knowledge on an item effect our decision making skills","","<div style=""font-size:60px;"">+</div>","null","","","","","","",""
"","739","image-keyboard-response","88","2.0.0","98991","pm9rorbldaw","bigger","shark","Does our inherit knowledge on an item effect our decision making skills","","stimuli/15-Inongruent.jpg","m","","","","","right","m","true"
"","null","html-keyboard-response","89","2.0.0","99907","pm9rorbldaw","bigger","shark","Does our inherit knowledge on an item effect our decision making skills","","<p>Correct!</p>","null","","","","","","",""
"","null","html-keyboard-response","90","2.0.0","100912","pm9rorbldaw","bigger","shark","Does our inherit knowledge on an item effect our decision making skills","","<div style=""font-size:60px;"">+</div>","null","","","","","","",""
"","703","image-keyboard-response","91","2.0.0","101616","pm9rorbldaw","bigger","shark","Does our inherit knowledge on an item effect our decision making skills","","stimuli/35-Inongruent.jpg","m","","","","","right","m","true"
"","null","html-keyboard-response","92","2.0.0","102521","pm9rorbldaw","bigger","shark","Does our inherit knowledge on an item effect our decision making skills","","<p>Correct!</p>","null","","","","","","",""
"","null","html-keyboard-response","93","2.0.0","103529","pm9rorbldaw","bigger","shark","Does our inherit knowledge on an item effect our decision making skills","","<div style=""font-size:60px;"">+</div>","null","","","","","","",""
"","648","image-keyboard-response","94","2.0.0","104177","pm9rorbldaw","bigger","shark","Does our inherit knowledge on an item effect our decision making skills","","stimuli/21-Inongruent.jpg","m","","","","","right","m","true"
"","null","html-keyboard-response","95","2.0.0","105088","pm9rorbldaw","bigger","shark","Does our inherit knowledge on an item effect our decision making skills","","<p>Correct!</p>","null","","","","","","",""
"","null","html-keyboard-response","96","2.0.0","106093","pm9rorbldaw","bigger","shark","Does our inherit knowledge on an item effect our decision making skills","","<div style=""font-size:60px;"">+</div>","null","","","","","","",""
"","1586","image-keyboard-response","97","2.0.0","107681","pm9rorbldaw","bigger","shark","Does our inherit knowledge on an item effect our decision making skills","","stimuli/5-Congruent.jpg","z","","","","","left","z","true"
"","null","html-keyboard-response","98","2.0.0","108597","pm9rorbldaw","bigger","shark","Does our inherit knowledge on an item effect our decision making skills","","<p>Correct!</p>","null","","","","","","",""
"","null","html-keyboard-response","99","2.0.0","109599","pm9rorbldaw","bigger","shark","Does our inherit knowledge on an item effect our decision making skills","","<div style=""font-size:60px;"">+</div>","null","","","","","","",""
"","650","image-keyboard-response","100","2.0.0","110250","pm9rorbldaw","bigger","shark","Does our inherit knowledge on an item effect our decision making skills","","stimuli/3-Inongruent.jpg","m","","","","","right","m","true"
"","null","html-keyboard-response","101","2.0.0","111161","pm9rorbldaw","bigger","shark","Does our inherit knowledge on an item effect our decision making skills","","<p>Correct!</p>","null","","","","","","",""
"","null","html-keyboard-response","102","2.0.0","112177","pm9rorbldaw","bigger","shark","Does our inherit knowledge on an item effect our decision making skills","","<div style=""font-size:60px;"">+</div>","null","","","","","","",""
"","1172","image-keyboard-response","103","2.0.0","113349","pm9rorbldaw","bigger","shark","Does our inherit knowledge on an item effect our decision making skills","","stimuli/11-Congruent.jpg","z","","","","","left","z","true"
"","null","html-keyboard-response","104","2.0.0","114263","pm9rorbldaw","bigger","shark","Does our inherit knowledge on an item effect our decision making skills","","<p>Correct!</p>","null","","","","","","",""
"","null","html-keyboard-response","105","2.0.0","115278","pm9rorbldaw","bigger","shark","Does our inherit knowledge on an item effect our decision making skills","","<div style=""font-size:60px;"">+</div>","null","","","","","","",""
"","674","image-keyboard-response","106","2.0.0","115952","pm9rorbldaw","bigger","shark","Does our inherit knowledge on an item effect our decision making skills","","stimuli/10-Congruent.jpg","z","","","","","left","z","true"
"","null","html-keyboard-response","107","2.0.0","116865","pm9rorbldaw","bigger","shark","Does our inherit knowledge on an item effect our decision making skills","","<p>Correct!</p>","null","","","","","","",""
"","null","html-keyboard-response","108","2.0.0","117880","pm9rorbldaw","bigger","shark","Does our inherit knowledge on an item effect our decision making skills","","<div style=""font-size:60px;"">+</div>","null","","","","","","",""
"","913","image-keyboard-response","109","2.0.0","118795","pm9rorbldaw","bigger","shark","Does our inherit knowledge on an item effect our decision making skills","","stimuli/1-Congruent.jpg","z","","","","","left","z","true"
"","null","html-keyboard-response","110","2.0.0","119702","pm9rorbldaw","bigger","shark","Does our inherit knowledge on an item effect our decision making skills","","<p>Correct!</p>","null","","","","","","",""
"","null","html-keyboard-response","111","2.0.0","120718","pm9rorbldaw","bigger","shark","Does our inherit knowledge on an item effect our decision making skills","","<div style=""font-size:60px;"">+</div>","null","","","","","","",""
"","802","image-keyboard-response","112","2.0.0","121521","pm9rorbldaw","bigger","shark","Does our inherit knowledge on an item effect our decision making skills","","stimuli/31-Inongruent.jpg","m","","","","","right","m","true"
"","null","html-keyboard-response","113","2.0.0","122428","pm9rorbldaw","bigger","shark","Does our inherit knowledge on an item effect our decision making skills","","<p>Correct!</p>","null","","","","","","",""
"","null","html-keyboard-response","114","2.0.0","123435","pm9rorbldaw","bigger","shark","Does our inherit knowledge on an item effect our decision making skills","","<div style=""font-size:60px;"">+</div>","null","","","","","","",""
"","517","image-keyboard-response","115","2.0.0","123953","pm9rorbldaw","bigger","shark","Does our inherit knowledge on an item effect our decision making skills","","stimuli/13-Inongruent.jpg","m","","","","","right","m","true"
"","null","html-keyboard-response","116","2.0.0","124864","pm9rorbldaw","bigger","shark","Does our inherit knowledge on an item effect our decision making skills","","<p>Correct!</p>","null","","","","","","",""
"","null","html-keyboard-response","117","2.0.0","125875","pm9rorbldaw","bigger","shark","Does our inherit knowledge on an item effect our decision making skills","","<div style=""font-size:60px;"">+</div>","null","","","","","","",""
"","654","image-keyboard-response","118","2.0.0","126530","pm9rorbldaw","bigger","shark","Does our inherit knowledge on an item effect our decision making skills","","stimuli/18-Inongruent.jpg","m","","","","","right","m","true"
"","null","html-keyboard-response","119","2.0.0","127435","pm9rorbldaw","bigger","shark","Does our inherit knowledge on an item effect our decision making skills","","<p>Correct!</p>","null","","","","","","",""
"","null","html-keyboard-response","120","2.0.0","128441","pm9rorbldaw","bigger","shark","Does our inherit knowledge on an item effect our decision making skills","","<div style=""font-size:60px;"">+</div>","null","","","","","","",""
"","720","image-keyboard-response","121","2.0.0","129162","pm9rorbldaw","bigger","shark","Does our inherit knowledge on an item effect our decision making skills","","stimuli/23-Congruent.jpg","z","","","","","left","z","true"
"","null","html-keyboard-response","122","2.0.0","130066","pm9rorbldaw","bigger","shark","Does our inherit knowledge on an item effect our decision making skills","","<p>Correct!</p>","null","","","","","","",""
"","null","html-keyboard-response","123","2.0.0","131083","pm9rorbldaw","bigger","shark","Does our inherit knowledge on an item effect our decision making skills","","<div style=""font-size:60px;"">+</div>","null","","","","","","",""
"","640","image-keyboard-response","124","2.0.0","131723","pm9rorbldaw","bigger","shark","Does our inherit knowledge on an item effect our decision making skills","","stimuli/30-Inongruent.jpg","m","","","","","right","m","true"
"","null","html-keyboard-response","125","2.0.0","132633","pm9rorbldaw","bigger","shark","Does our inherit knowledge on an item effect our decision making skills","","<p>Correct!</p>","null","","","","","","",""
"","null","html-keyboard-response","126","2.0.0","133648","pm9rorbldaw","bigger","shark","Does our inherit knowledge on an item effect our decision making skills","","<div style=""font-size:60px;"">+</div>","null","","","","","","",""
"","656","image-keyboard-response","127","2.0.0","134305","pm9rorbldaw","bigger","shark","Does our inherit knowledge on an item effect our decision making skills","","stimuli/6-Inongruent.jpg","m","","","","","right","m","true"
"","null","html-keyboard-response","128","2.0.0","135210","pm9rorbldaw","bigger","shark","Does our inherit knowledge on an item effect our decision making skills","","<p>Correct!</p>","null","","","","","","",""
"","null","html-keyboard-response","129","2.0.0","136221","pm9rorbldaw","bigger","shark","Does our inherit knowledge on an item effect our decision making skills","","<div style=""font-size:60px;"">+</div>","null","","","","","","",""
"","602","image-keyboard-response","130","2.0.0","136824","pm9rorbldaw","bigger","shark","Does our inherit knowledge on an item effect our decision making skills","","stimuli/20-Inongruent.jpg","m","","","","","right","m","true"
"","null","html-keyboard-response","131","2.0.0","137731","pm9rorbldaw","bigger","shark","Does our inherit knowledge on an item effect our decision making skills","","<p>Correct!</p>","null","","","","","","",""
"","null","html-keyboard-response","132","2.0.0","138734","pm9rorbldaw","bigger","shark","Does our inherit knowledge on an item effect our decision making skills","","<div style=""font-size:60px;"">+</div>","null","","","","","","",""
"","772","image-keyboard-response","133","2.0.0","139507","pm9rorbldaw","bigger","shark","Does our inherit knowledge on an item effect our decision making skills","","stimuli/24-Inongruent.jpg","m","","","","","right","m","true"
"","null","html-keyboard-response","134","2.0.0","140417","pm9rorbldaw","bigger","shark","Does our inherit knowledge on an item effect our decision making skills","","<p>Correct!</p>","null","","","","","","",""
"","null","html-keyboard-response","135","2.0.0","141426","pm9rorbldaw","bigger","shark","Does our inherit knowledge on an item effect our decision making skills","","<div style=""font-size:60px;"">+</div>","null","","","","","","",""
"","712","image-keyboard-response","136","2.0.0","142139","pm9rorbldaw","bigger","shark","Does our inherit knowledge on an item effect our decision making skills","","stimuli/7-Congruent.jpg","z","","","","","left","z","true"
"","null","html-keyboard-response","137","2.0.0","143051","pm9rorbldaw","bigger","shark","Does our inherit knowledge on an item effect our decision making skills","","<p>Correct!</p>","null","","","","","","",""
"","null","html-keyboard-response","138","2.0.0","144059","pm9rorbldaw","bigger","shark","Does our inherit knowledge on an item effect our decision making skills","","<div style=""font-size:60px;"">+</div>","null","","","","","","",""
"","609","image-keyboard-response","139","2.0.0","144669","pm9rorbldaw","bigger","shark","Does our inherit knowledge on an item effect our decision making skills","","stimuli/23-Inongruent.jpg","m","","","","","right","m","true"
"","null","html-keyboard-response","140","2.0.0","145576","pm9rorbldaw","bigger","shark","Does our inherit knowledge on an item effect our decision making skills","","<p>Correct!</p>","null","","","","","","",""
"","null","html-keyboard-response","141","2.0.0","146590","pm9rorbldaw","bigger","shark","Does our inherit knowledge on an item effect our decision making skills","","<div style=""font-size:60px;"">+</div>","null","","","","","","",""
"","750","image-keyboard-response","142","2.0.0","147342","pm9rorbldaw","bigger","shark","Does our inherit knowledge on an item effect our decision making skills","","stimuli/2-Congruent.jpg","z","","","","","left","z","true"
"","null","html-keyboard-response","143","2.0.0","148243","pm9rorbldaw","bigger","shark","Does our inherit knowledge on an item effect our decision making skills","","<p>Correct!</p>","null","","","","","","",""
"","null","html-keyboard-response","144","2.0.0","149255","pm9rorbldaw","bigger","shark","Does our inherit knowledge on an item effect our decision making skills","","<div style=""font-size:60px;"">+</div>","null","","","","","","",""
"","632","image-keyboard-response","145","2.0.0","149887","pm9rorbldaw","bigger","shark","Does our inherit knowledge on an item effect our decision making skills","","stimuli/15-Congruent.jpg","z","","","","","left","z","true"
"","null","html-keyboard-response","146","2.0.0","150791","pm9rorbldaw","bigger","shark","Does our inherit knowledge on an item effect our decision making skills","","<p>Correct!</p>","null","","","","","","",""
"","null","html-keyboard-response","147","2.0.0","151795","pm9rorbldaw","bigger","shark","Does our inherit knowledge on an item effect our decision making skills","","<div style=""font-size:60px;"">+</div>","null","","","","","","",""
"","784","image-keyboard-response","148","2.0.0","152580","pm9rorbldaw","bigger","shark","Does our inherit knowledge on an item effect our decision making skills","","stimuli/5-Congruent.jpg","z","","","","","left","z","true"
"","null","html-keyboard-response","149","2.0.0","153483","pm9rorbldaw","bigger","shark","Does our inherit knowledge on an item effect our decision making skills","","<p>Correct!</p>","null","","","","","","",""
"","null","html-keyboard-response","150","2.0.0","154487","pm9rorbldaw","bigger","shark","Does our inherit knowledge on an item effect our decision making skills","","<div style=""font-size:60px;"">+</div>","null","","","","","","",""
"","646","image-keyboard-response","151","2.0.0","155134","pm9rorbldaw","bigger","shark","Does our inherit knowledge on an item effect our decision making skills","","stimuli/6-Inongruent.jpg","m","","","","","right","m","true"
"","null","html-keyboard-response","152","2.0.0","156040","pm9rorbldaw","bigger","shark","Does our inherit knowledge on an item effect our decision making skills","","<p>Correct!</p>","null","","","","","","",""
"","null","html-keyboard-response","153","2.0.0","157052","pm9rorbldaw","bigger","shark","Does our inherit knowledge on an item effect our decision making skills","","<div style=""font-size:60px;"">+</div>","null","","","","","","",""
"","854","image-keyboard-response","154","2.0.0","157908","pm9rorbldaw","bigger","shark","Does our inherit knowledge on an item effect our decision making skills","","stimuli/22-Inongruent.jpg","m","","","","","right","m","true"
"","null","html-keyboard-response","155","2.0.0","158815","pm9rorbldaw","bigger","shark","Does our inherit knowledge on an item effect our decision making skills","","<p>Correct!</p>","null","","","","","","",""
"","null","html-keyboard-response","156","2.0.0","159820","pm9rorbldaw","bigger","shark","Does our inherit knowledge on an item effect our decision making skills","","<div style=""font-size:60px;"">+</div>","null","","","","","","",""
"","932","image-keyboard-response","157","2.0.0","160753","pm9rorbldaw","bigger","shark","Does our inherit knowledge on an item effect our decision making skills","","stimuli/4-Congruent.jpg","z","","","","","left","z","true"
"","null","html-keyboard-response","158","2.0.0","161658","pm9rorbldaw","bigger","shark","Does our inherit knowledge on an item effect our decision making skills","","<p>Correct!</p>","null","","","","","","",""
"","null","html-keyboard-response","159","2.0.0","162669","pm9rorbldaw","bigger","shark","Does our inherit knowledge on an item effect our decision making skills","","<div style=""font-size:60px;"">+</div>","null","","","","","","",""
"","652","image-keyboard-response","160","2.0.0","163322","pm9rorbldaw","bigger","shark","Does our inherit knowledge on an item effect our decision making skills","","stimuli/11-Inongruent.jpg","m","","","","","right","m","true"
"","null","html-keyboard-response","161","2.0.0","164234","pm9rorbldaw","bigger","shark","Does our inherit knowledge on an item effect our decision making skills","","<p>Correct!</p>","null","","","","","","",""
"","null","html-keyboard-response","162","2.0.0","165242","pm9rorbldaw","bigger","shark","Does our inherit knowledge on an item effect our decision making skills","","<div style=""font-size:60px;"">+</div>","null","","","","","","",""
"","773","image-keyboard-response","163","2.0.0","166016","pm9rorbldaw","bigger","shark","Does our inherit knowledge on an item effect our decision making skills","","stimuli/36-Congruent.jpg","z","","","","","left","z","true"
"","null","html-keyboard-response","164","2.0.0","166924","pm9rorbldaw","bigger","shark","Does our inherit knowledge on an item effect our decision making skills","","<p>Correct!</p>","null","","","","","","",""
"","null","html-keyboard-response","165","2.0.0","167926","pm9rorbldaw","bigger","shark","Does our inherit knowledge on an item effect our decision making skills","","<div style=""font-size:60px;"">+</div>","null","","","","","","",""
"","708","image-keyboard-response","166","2.0.0","168635","pm9rorbldaw","bigger","shark","Does our inherit knowledge on an item effect our decision making skills","","stimuli/25-Inongruent.jpg","m","","","","","right","m","true"
"","null","html-keyboard-response","167","2.0.0","169548","pm9rorbldaw","bigger","shark","Does our inherit knowledge on an item effect our decision making skills","","<p>Correct!</p>","null","","","","","","",""
"","null","html-keyboard-response","168","2.0.0","170554","pm9rorbldaw","bigger","shark","Does our inherit knowledge on an item effect our decision making skills","","<div style=""font-size:60px;"">+</div>","null","","","","","","",""
"","825","image-keyboard-response","169","2.0.0","171379","pm9rorbldaw","bigger","shark","Does our inherit knowledge on an item effect our decision making skills","","stimuli/8-Inongruent.jpg","m","","","","","right","m","true"
"","null","html-keyboard-response","170","2.0.0","172291","pm9rorbldaw","bigger","shark","Does our inherit knowledge on an item effect our decision making skills","","<p>Correct!</p>","null","","","","","","",""
"","null","html-keyboard-response","171","2.0.0","173293","pm9rorbldaw","bigger","shark","Does our inherit knowledge on an item effect our decision making skills","","<div style=""font-size:60px;"">+</div>","null","","","","","","",""
"","711","image-keyboard-response","172","2.0.0","174005","pm9rorbldaw","bigger","shark","Does our inherit knowledge on an item effect our decision making skills","","stimuli/8-Congruent.jpg","z","","","","","left","z","true"
"","null","html-keyboard-response","173","2.0.0","174918","pm9rorbldaw","bigger","shark","Does our inherit knowledge on an item effect our decision making skills","","<p>Correct!</p>","null","","","","","","",""
"","null","html-keyboard-response","174","2.0.0","175927","pm9rorbldaw","bigger","shark","Does our inherit knowledge on an item effect our decision making skills","","<div style=""font-size:60px;"">+</div>","null","","","","","","",""
"","785","image-keyboard-response","175","2.0.0","176713","pm9rorbldaw","bigger","shark","Does our inherit knowledge on an item effect our decision making skills","","stimuli/7-Inongruent.jpg","m","","","","","right","m","true"
"","null","html-keyboard-response","176","2.0.0","177616","pm9rorbldaw","bigger","shark","Does our inherit knowledge on an item effect our decision making skills","","<p>Correct!</p>","null","","","","","","",""
"","null","html-keyboard-response","177","2.0.0","178620","pm9rorbldaw","bigger","shark","Does our inherit knowledge on an item effect our decision making skills","","<div style=""font-size:60px;"">+</div>","null","","","","","","",""
"","524","image-keyboard-response","178","2.0.0","179145","pm9rorbldaw","bigger","shark","Does our inherit knowledge on an item effect our decision making skills","","stimuli/32-Inongruent.jpg","m","","","","","right","m","true"
"","null","html-keyboard-response","179","2.0.0","180048","pm9rorbldaw","bigger","shark","Does our inherit knowledge on an item effect our decision making skills","","<p>Correct!</p>","null","","","","","","",""
"","null","html-keyboard-response","180","2.0.0","181049","pm9rorbldaw","bigger","shark","Does our inherit knowledge on an item effect our decision making skills","","<div style=""font-size:60px;"">+</div>","null","","","","","","",""
"","820","image-keyboard-response","181","2.0.0","181870","pm9rorbldaw","bigger","shark","Does our inherit knowledge on an item effect our decision making skills","","stimuli/22-Congruent.jpg","z","","","","","left","z","true"
"","null","html-keyboard-response","182","2.0.0","182785","pm9rorbldaw","bigger","shark","Does our inherit knowledge on an item effect our decision making skills","","<p>Correct!</p>","null","","","","","","",""
"","null","html-keyboard-response","183","2.0.0","183787","pm9rorbldaw","bigger","shark","Does our inherit knowledge on an item effect our decision making skills","","<div style=""font-size:60px;"">+</div>","null","","","","","","",""
"","722","image-keyboard-response","184","2.0.0","184510","pm9rorbldaw","bigger","shark","Does our inherit knowledge on an item effect our decision making skills","","stimuli/21-Congruent.jpg","z","","","","","left","z","true"
"","null","html-keyboard-response","185","2.0.0","185424","pm9rorbldaw","bigger","shark","Does our inherit knowledge on an item effect our decision making skills","","<p>Correct!</p>","null","","","","","","",""
"","null","html-keyboard-response","186","2.0.0","186428","pm9rorbldaw","bigger","shark","Does our inherit knowledge on an item effect our decision making skills","","<div style=""font-size:60px;"">+</div>","null","","","","","","",""
"","633","image-keyboard-response","187","2.0.0","187062","pm9rorbldaw","bigger","shark","Does our inherit knowledge on an item effect our decision making skills","","stimuli/8-Inongruent.jpg","m","","","","","right","m","true"
"","null","html-keyboard-response","188","2.0.0","187972","pm9rorbldaw","bigger","shark","Does our inherit knowledge on an item effect our decision making skills","","<p>Correct!</p>","null","","","","","","",""
"","null","html-keyboard-response","189","2.0.0","188978","pm9rorbldaw","bigger","shark","Does our inherit knowledge on an item effect our decision making skills","","<div style=""font-size:60px;"">+</div>","null","","","","","","",""
"","656","image-keyboard-response","190","2.0.0","189634","pm9rorbldaw","bigger","shark","Does our inherit knowledge on an item effect our decision making skills","","stimuli/14-Congruent.jpg","z","","","","","left","z","true"
"","null","html-keyboard-response","191","2.0.0","190543","pm9rorbldaw","bigger","shark","Does our inherit knowledge on an item effect our decision making skills","","<p>Correct!</p>","null","","","","","","",""
"","null","html-keyboard-response","192","2.0.0","191556","pm9rorbldaw","bigger","shark","Does our inherit knowledge on an item effect our decision making skills","","<div style=""font-size:60px;"">+</div>","null","","","","","","",""
"","551","image-keyboard-response","193","2.0.0","192107","pm9rorbldaw","bigger","shark","Does our inherit knowledge on an item effect our decision making skills","","stimuli/3-Congruent.jpg","z","","","","","left","z","true"
"","null","html-keyboard-response","194","2.0.0","193015","pm9rorbldaw","bigger","shark","Does our inherit knowledge on an item effect our decision making skills","","<p>Correct!</p>","null","","","","","","",""
"","null","html-keyboard-response","195","2.0.0","194029","pm9rorbldaw","bigger","shark","Does our inherit knowledge on an item effect our decision making skills","","<div style=""font-size:60px;"">+</div>","null","","","","","","",""
"","498","image-keyboard-response","196","2.0.0","194528","pm9rorbldaw","bigger","shark","Does our inherit knowledge on an item effect our decision making skills","","stimuli/35-Inongruent.jpg","m","","","","","right","m","true"
"","null","html-keyboard-response","197","2.0.0","195445","pm9rorbldaw","bigger","shark","Does our inherit knowledge on an item effect our decision making skills","","<p>Correct!</p>","null","","","","","","",""
"","null","html-keyboard-response","198","2.0.0","196461","pm9rorbldaw","bigger","shark","Does our inherit knowledge on an item effect our decision making skills","","<div style=""font-size:60px;"">+</div>","null","","","","","","",""
"","652","image-keyboard-response","199","2.0.0","197115","pm9rorbldaw","bigger","shark","Does our inherit knowledge on an item effect our decision making skills","","stimuli/32-Congruent.jpg","z","","","","","left","z","true"
"","null","html-keyboard-response","200","2.0.0","198026","pm9rorbldaw","bigger","shark","Does our inherit knowledge on an item effect our decision making skills","","<p>Correct!</p>","null","","","","","","",""
"","null","html-keyboard-response","201","2.0.0","199042","pm9rorbldaw","bigger","shark","Does our inherit knowledge on an item effect our decision making skills","","<div style=""font-size:60px;"">+</div>","null","","","","","","",""
"","1784","image-keyboard-response","202","2.0.0","200827","pm9rorbldaw","bigger","shark","Does our inherit knowledge on an item effect our decision making skills","","stimuli/19-Congruent.jpg","z","","","","","left","z","true"
"","null","html-keyboard-response","203","2.0.0","201735","pm9rorbldaw","bigger","shark","Does our inherit knowledge on an item effect our decision making skills","","<p>Correct!</p>","null","","","","","","",""
"","null","html-keyboard-response","204","2.0.0","202751","pm9rorbldaw","bigger","shark","Does our inherit knowledge on an item effect our decision making skills","","<div style=""font-size:60px;"">+</div>","null","","","","","","",""
"","800","image-keyboard-response","205","2.0.0","203551","pm9rorbldaw","bigger","shark","Does our inherit knowledge on an item effect our decision making skills","","stimuli/25-Congruent.jpg","z","","","","","left","z","true"
"","null","html-keyboard-response","206","2.0.0","204457","pm9rorbldaw","bigger","shark","Does our inherit knowledge on an item effect our decision making skills","","<p>Correct!</p>","null","","","","","","",""
"","null","html-keyboard-response","207","2.0.0","205469","pm9rorbldaw","bigger","shark","Does our inherit knowledge on an item effect our decision making skills","","<div style=""font-size:60px;"">+</div>","null","","","","","","",""
"","570","image-keyboard-response","208","2.0.0","206040","pm9rorbldaw","bigger","shark","Does our inherit knowledge on an item effect our decision making skills","","stimuli/31-Congruent.jpg","z","","","","","left","z","true"
"","null","html-keyboard-response","209","2.0.0","206949","pm9rorbldaw","bigger","shark","Does our inherit knowledge on an item effect our decision making skills","","<p>Correct!</p>","null","","","","","","",""
"","null","html-keyboard-response","210","2.0.0","207963","pm9rorbldaw","bigger","shark","Does our inherit knowledge on an item effect our decision making skills","","<div style=""font-size:60px;"">+</div>","null","","","","","","",""
"","574","image-keyboard-response","211","2.0.0","208538","pm9rorbldaw","bigger","shark","Does our inherit knowledge on an item effect our decision making skills","","stimuli/11-Inongruent.jpg","m","","","","","right","m","true"
"","null","html-keyboard-response","212","2.0.0","209446","pm9rorbldaw","bigger","shark","Does our inherit knowledge on an item effect our decision making skills","","<p>Correct!</p>","null","","","","","","",""
"","null","html-keyboard-response","213","2.0.0","210449","pm9rorbldaw","bigger","shark","Does our inherit knowledge on an item effect our decision making skills","","<div style=""font-size:60px;"">+</div>","null","","","","","","",""
"","644","image-keyboard-response","214","2.0.0","211094","pm9rorbldaw","bigger","shark","Does our inherit knowledge on an item effect our decision making skills","","stimuli/15-Congruent.jpg","z","","","","","left","z","true"
"","null","html-keyboard-response","215","2.0.0","212006","pm9rorbldaw","bigger","shark","Does our inherit knowledge on an item effect our decision making skills","","<p>Correct!</p>","null","","","","","","",""
"","null","html-keyboard-response","216","2.0.0","213013","pm9rorbldaw","bigger","shark","Does our inherit knowledge on an item effect our decision making skills","","<div style=""font-size:60px;"">+</div>","null","","","","","","",""
"","501","image-keyboard-response","217","2.0.0","213515","pm9rorbldaw","bigger","shark","Does our inherit knowledge on an item effect our decision making skills","","stimuli/7-Inongruent.jpg","m","","","","","right","m","true"
"","null","html-keyboard-response","218","2.0.0","214419","pm9rorbldaw","bigger","shark","Does our inherit knowledge on an item effect our decision making skills","","<p>Correct!</p>","null","","","","","","",""
"","null","html-keyboard-response","219","2.0.0","215424","pm9rorbldaw","bigger","shark","Does our inherit knowledge on an item effect our decision making skills","","<div style=""font-size:60px;"">+</div>","null","","","","","","",""
"","538","image-keyboard-response","220","2.0.0","215963","pm9rorbldaw","bigger","shark","Does our inherit knowledge on an item effect our decision making skills","","stimuli/27-Congruent.jpg","z","","","","","left","z","true"
"","null","html-keyboard-response","221","2.0.0","216875","pm9rorbldaw","bigger","shark","Does our inherit knowledge on an item effect our decision making skills","","<p>Correct!</p>","null","","","","","","",""
"","null","html-keyboard-response","222","2.0.0","217890","pm9rorbldaw","bigger","shark","Does our inherit knowledge on an item effect our decision making skills","","<div style=""font-size:60px;"">+</div>","null","","","","","","",""
"","673","image-keyboard-response","223","2.0.0","218564","pm9rorbldaw","bigger","shark","Does our inherit knowledge on an item effect our decision making skills","","stimuli/30-Congruent.jpg","z","","","","","left","z","true"
"","null","html-keyboard-response","224","2.0.0","219475","pm9rorbldaw","bigger","shark","Does our inherit knowledge on an item effect our decision making skills","","<p>Correct!</p>","null","","","","","","",""
"","null","html-keyboard-response","225","2.0.0","220481","pm9rorbldaw","bigger","shark","Does our inherit knowledge on an item effect our decision making skills","","<div style=""font-size:60px;"">+</div>","null","","","","","","",""
"","573","image-keyboard-response","226","2.0.0","221055","pm9rorbldaw","bigger","shark","Does our inherit knowledge on an item effect our decision making skills","","stimuli/30-Congruent.jpg","z","","","","","left","z","true"
"","null","html-keyboard-response","227","2.0.0","221956","pm9rorbldaw","bigger","shark","Does our inherit knowledge on an item effect our decision making skills","","<p>Correct!</p>","null","","","","","","",""
"","null","html-keyboard-response","228","2.0.0","222969","pm9rorbldaw","bigger","shark","Does our inherit knowledge on an item effect our decision making skills","","<div style=""font-size:60px;"">+</div>","null","","","","","","",""
"","536","image-keyboard-response","229","2.0.0","223506","pm9rorbldaw","bigger","shark","Does our inherit knowledge on an item effect our decision making skills","","stimuli/12-Inongruent.jpg","m","","","","","right","m","true"
"","null","html-keyboard-response","230","2.0.0","224414","pm9rorbldaw","bigger","shark","Does our inherit knowledge on an item effect our decision making skills","","<p>Correct!</p>","null","","","","","","",""
"","null","html-keyboard-response","231","2.0.0","225422","pm9rorbldaw","bigger","shark","Does our inherit knowledge on an item effect our decision making skills","","<div style=""font-size:60px;"">+</div>","null","","","","","","",""
"","524","image-keyboard-response","232","2.0.0","225946","pm9rorbldaw","bigger","shark","Does our inherit knowledge on an item effect our decision making skills","","stimuli/3-Congruent.jpg","z","","","","","left","z","true"
"","null","html-keyboard-response","233","2.0.0","226847","pm9rorbldaw","bigger","shark","Does our inherit knowledge on an item effect our decision making skills","","<p>Correct!</p>","null","","","","","","",""
"","null","html-keyboard-response","234","2.0.0","227852","pm9rorbldaw","bigger","shark","Does our inherit knowledge on an item effect our decision making skills","","<div style=""font-size:60px;"">+</div>","null","","","","","","",""
"","475","image-keyboard-response","235","2.0.0","228327","pm9rorbldaw","bigger","shark","Does our inherit knowledge on an item effect our decision making skills","","stimuli/5-Inongruent.jpg","m","","","","","right","m","true"
"","null","html-keyboard-response","236","2.0.0","229238","pm9rorbldaw","bigger","shark","Does our inherit knowledge on an item effect our decision making skills","","<p>Correct!</p>","null","","","","","","",""
"","null","html-keyboard-response","237","2.0.0","230252","pm9rorbldaw","bigger","shark","Does our inherit knowledge on an item effect our decision making skills","","<div style=""font-size:60px;"">+</div>","null","","","","","","",""
"","1235","image-keyboard-response","238","2.0.0","231488","pm9rorbldaw","bigger","shark","Does our inherit knowledge on an item effect our decision making skills","","stimuli/6-Congruent.jpg","z","","","","","left","z","true"
"","null","html-keyboard-response","239","2.0.0","232395","pm9rorbldaw","bigger","shark","Does our inherit knowledge on an item effect our decision making skills","","<p>Correct!</p>","null","","","","","","",""
"","null","html-keyboard-response","240","2.0.0","233408","pm9rorbldaw","bigger","shark","Does our inherit knowledge on an item effect our decision making skills","","<div style=""font-size:60px;"">+</div>","null","","","","","","",""
"","914","image-keyboard-response","241","2.0.0","234324","pm9rorbldaw","bigger","shark","Does our inherit knowledge on an item effect our decision making skills","","stimuli/31-Inongruent.jpg","m","","","","","right","m","true"
"","null","html-keyboard-response","242","2.0.0","235238","pm9rorbldaw","bigger","shark","Does our inherit knowledge on an item effect our decision making skills","","<p>Correct!</p>","null","","","","","","",""
"","null","html-keyboard-response","243","2.0.0","236242","pm9rorbldaw","bigger","shark","Does our inherit knowledge on an item effect our decision making skills","","<div style=""font-size:60px;"">+</div>","null","","","","","","",""
"","761","image-keyboard-response","244","2.0.0","237005","pm9rorbldaw","bigger","shark","Does our inherit knowledge on an item effect our decision making skills","","stimuli/33-Inongruent.jpg","m","","","","","right","m","true"
"","null","html-keyboard-response","245","2.0.0","237919","pm9rorbldaw","bigger","shark","Does our inherit knowledge on an item effect our decision making skills","","<p>Correct!</p>","null","","","","","","",""
"","null","html-keyboard-response","246","2.0.0","238935","pm9rorbldaw","bigger","shark","Does our inherit knowledge on an item effect our decision making skills","","<div style=""font-size:60px;"">+</div>","null","","","","","","",""
"","549","image-keyboard-response","247","2.0.0","239484","pm9rorbldaw","bigger","shark","Does our inherit knowledge on an item effect our decision making skills","","stimuli/25-Inongruent.jpg","m","","","","","right","m","true"
"","null","html-keyboard-response","248","2.0.0","240390","pm9rorbldaw","bigger","shark","Does our inherit knowledge on an item effect our decision making skills","","<p>Correct!</p>","null","","","","","","",""
"","null","html-keyboard-response","249","2.0.0","241399","pm9rorbldaw","bigger","shark","Does our inherit knowledge on an item effect our decision making skills","","<div style=""font-size:60px;"">+</div>","null","","","","","","",""
"","804","image-keyboard-response","250","2.0.0","242204","pm9rorbldaw","bigger","shark","Does our inherit knowledge on an item effect our decision making skills","","stimuli/29-Inongruent.jpg","m","","","","","right","m","true"
"","null","html-keyboard-response","251","2.0.0","243108","pm9rorbldaw","bigger","shark","Does our inherit knowledge on an item effect our decision making skills","","<p>Correct!</p>","null","","","","","","",""
"","null","html-keyboard-response","252","2.0.0","244121","pm9rorbldaw","bigger","shark","Does our inherit knowledge on an item effect our decision making skills","","<div style=""font-size:60px;"">+</div>","null","","","","","","",""
"","1195","image-keyboard-response","253","2.0.0","245317","pm9rorbldaw","bigger","shark","Does our inherit knowledge on an item effect our decision making skills","","stimuli/8-Congruent.jpg","z","","","","","left","z","true"
"","null","html-keyboard-response","254","2.0.0","246220","pm9rorbldaw","bigger","shark","Does our inherit knowledge on an item effect our decision making skills","","<p>Correct!</p>","null","","","","","","",""
"","null","html-keyboard-response","255","2.0.0","247233","pm9rorbldaw","bigger","shark","Does our inherit knowledge on an item effect our decision making skills","","<div style=""font-size:60px;"">+</div>","null","","","","","","",""
"","1147","image-keyboard-response","256","2.0.0","248381","pm9rorbldaw","bigger","shark","Does our inherit knowledge on an item effect our decision making skills","","stimuli/25-Congruent.jpg","z","","","","","left","z","true"
"","null","html-keyboard-response","257","2.0.0","249288","pm9rorbldaw","bigger","shark","Does our inherit knowledge on an item effect our decision making skills","","<p>Correct!</p>","null","","","","","","",""
"","null","html-keyboard-response","258","2.0.0","250292","pm9rorbldaw","bigger","shark","Does our inherit knowledge on an item effect our decision making skills","","<div style=""font-size:60px;"">+</div>","null","","","","","","",""
"","552","image-keyboard-response","259","2.0.0","250845","pm9rorbldaw","bigger","shark","Does our inherit knowledge on an item effect our decision making skills","","stimuli/13-Inongruent.jpg","m","","","","","right","m","true"
"","null","html-keyboard-response","260","2.0.0","251758","pm9rorbldaw","bigger","shark","Does our inherit knowledge on an item effect our decision making skills","","<p>Correct!</p>","null","","","","","","",""
"","null","html-keyboard-response","261","2.0.0","252773","pm9rorbldaw","bigger","shark","Does our inherit knowledge on an item effect our decision making skills","","<div style=""font-size:60px;"">+</div>","null","","","","","","",""
"","644","image-keyboard-response","262","2.0.0","253418","pm9rorbldaw","bigger","shark","Does our inherit knowledge on an item effect our decision making skills","","stimuli/27-Inongruent.jpg","m","","","","","right","m","true"
"","null","html-keyboard-response","263","2.0.0","254319","pm9rorbldaw","bigger","shark","Does our inherit knowledge on an item effect our decision making skills","","<p>Correct!</p>","null","","","","","","",""
"","null","html-keyboard-response","264","2.0.0","255321","pm9rorbldaw","bigger","shark","Does our inherit knowledge on an item effect our decision making skills","","<div style=""font-size:60px;"">+</div>","null","","","","","","",""
"","843","image-keyboard-response","265","2.0.0","256165","pm9rorbldaw","bigger","shark","Does our inherit knowledge on an item effect our decision making skills","","stimuli/33-Inongruent.jpg","m","","","","","right","m","true"
"","null","html-keyboard-response","266","2.0.0","257079","pm9rorbldaw","bigger","shark","Does our inherit knowledge on an item effect our decision making skills","","<p>Correct!</p>","null","","","","","","",""
"","null","html-keyboard-response","267","2.0.0","258095","pm9rorbldaw","bigger","shark","Does our inherit knowledge on an item effect our decision making skills","","<div style=""font-size:60px;"">+</div>","null","","","","","","",""
"","572","image-keyboard-response","268","2.0.0","258668","pm9rorbldaw","bigger","shark","Does our inherit knowledge on an item effect our decision making skills","","stimuli/17-Inongruent.jpg","m","","","","","right","m","true"
"","null","html-keyboard-response","269","2.0.0","259573","pm9rorbldaw","bigger","shark","Does our inherit knowledge on an item effect our decision making skills","","<p>Correct!</p>","null","","","","","","",""
"","null","html-keyboard-response","270","2.0.0","260583","pm9rorbldaw","bigger","shark","Does our inherit knowledge on an item effect our decision making skills","","<div style=""font-size:60px;"">+</div>","null","","","","","","",""
"","1231","image-keyboard-response","271","2.0.0","261814","pm9rorbldaw","bigger","shark","Does our inherit knowledge on an item effect our decision making skills","","stimuli/11-Congruent.jpg","z","","","","","left","z","true"
"","null","html-keyboard-response","272","2.0.0","262722","pm9rorbldaw","bigger","shark","Does our inherit knowledge on an item effect our decision making skills","","<p>Correct!</p>","null","","","","","","",""
"","null","html-keyboard-response","273","2.0.0","263724","pm9rorbldaw","bigger","shark","Does our inherit knowledge on an item effect our decision making skills","","<div style=""font-size:60px;"">+</div>","null","","","","","","",""
"","9969","image-keyboard-response","274","2.0.0","273695","pm9rorbldaw","bigger","shark","Does our inherit knowledge on an item effect our decision making skills","","stimuli/28-Congruent.jpg","z","","","","","left","z","true"
"","null","html-keyboard-response","275","2.0.0","274600","pm9rorbldaw","bigger","shark","Does our inherit knowledge on an item effect our decision making skills","","<p>Correct!</p>","null","","","","","","",""
"","null","html-keyboard-response","276","2.0.0","275606","pm9rorbldaw","bigger","shark","Does our inherit knowledge on an item effect our decision making skills","","<div style=""font-size:60px;"">+</div>","null","","","","","","",""
"","742","image-keyboard-response","277","2.0.0","276349","pm9rorbldaw","bigger","shark","Does our inherit knowledge on an item effect our decision making skills","","stimuli/10-Inongruent.jpg","m","","","","","right","m","true"
"","null","html-keyboard-response","278","2.0.0","277259","pm9rorbldaw","bigger","shark","Does our inherit knowledge on an item effect our decision making skills","","<p>Correct!</p>","null","","","","","","",""
"","null","html-keyboard-response","279","2.0.0","278263","pm9rorbldaw","bigger","shark","Does our inherit knowledge on an item effect our decision making skills","","<div style=""font-size:60px;"">+</div>","null","","","","","","",""
"","549","image-keyboard-response","280","2.0.0","278813","pm9rorbldaw","bigger","shark","Does our inherit knowledge on an item effect our decision making skills","","stimuli/28-Inongruent.jpg","m","","","","","right","m","true"
"","null","html-keyboard-response","281","2.0.0","279725","pm9rorbldaw","bigger","shark","Does our inherit knowledge on an item effect our decision making skills","","<p>Correct!</p>","null","","","","","","",""
"","null","html-keyboard-response","282","2.0.0","280740","pm9rorbldaw","bigger","shark","Does our inherit knowledge on an item effect our decision making skills","","<div style=""font-size:60px;"">+</div>","null","","","","","","",""
"","480","image-keyboard-response","283","2.0.0","281221","pm9rorbldaw","bigger","shark","Does our inherit knowledge on an item effect our decision making skills","","stimuli/31-Congruent.jpg","z","","","","","left","z","true"
"","null","html-keyboard-response","284","2.0.0","282130","pm9rorbldaw","bigger","shark","Does our inherit knowledge on an item effect our decision making skills","","<p>Correct!</p>","null","","","","","","",""
"","null","html-keyboard-response","285","2.0.0","283135","pm9rorbldaw","bigger","shark","Does our inherit knowledge on an item effect our decision making skills","","<div style=""font-size:60px;"">+</div>","null","","","","","","",""
"","561","image-keyboard-response","286","2.0.0","283696","pm9rorbldaw","bigger","shark","Does our inherit knowledge on an item effect our decision making skills","","stimuli/22-Congruent.jpg","z","","","","","left","z","true"
"","null","html-keyboard-response","287","2.0.0","284612","pm9rorbldaw","bigger","shark","Does our inherit knowledge on an item effect our decision making skills","","<p>Correct!</p>","null","","","","","","",""
"","null","html-keyboard-response","288","2.0.0","285615","pm9rorbldaw","bigger","shark","Does our inherit knowledge on an item effect our decision making skills","","<div style=""font-size:60px;"">+</div>","null","","","","","","",""
"","849","image-keyboard-response","289","2.0.0","286464","pm9rorbldaw","bigger","shark","Does our inherit knowledge on an item effect our decision making skills","","stimuli/9-Inongruent.jpg","m","","","","","right","m","true"
"","null","html-keyboard-response","290","2.0.0","287371","pm9rorbldaw","bigger","shark","Does our inherit knowledge on an item effect our decision making skills","","<p>Correct!</p>","null","","","","","","",""
"","null","html-keyboard-response","291","2.0.0","288379","pm9rorbldaw","bigger","shark","Does our inherit knowledge on an item effect our decision making skills","","<div style=""font-size:60px;"">+</div>","null","","","","","","",""
"","609","image-keyboard-response","292","2.0.0","288989","pm9rorbldaw","bigger","shark","Does our inherit knowledge on an item effect our decision making skills","","stimuli/14-Congruent.jpg","z","","","","","left","z","true"
"","null","html-keyboard-response","293","2.0.0","289892","pm9rorbldaw","bigger","shark","Does our inherit knowledge on an item effect our decision making skills","","<p>Correct!</p>","null","","","","","","",""
"","null","html-keyboard-response","294","2.0.0","290903","pm9rorbldaw","bigger","shark","Does our inherit knowledge on an item effect our decision making skills","","<div style=""font-size:60px;"">+</div>","null","","","","","","",""
"","747","image-keyboard-response","295","2.0.0","291651","pm9rorbldaw","bigger","shark","Does our inherit knowledge on an item effect our decision making skills","","stimuli/30-Inongruent.jpg","m","","","","","right","m","true"
"","null","html-keyboard-response","296","2.0.0","292556","pm9rorbldaw","bigger","shark","Does our inherit knowledge on an item effect our decision making skills","","<p>Correct!</p>","null","","","","","","",""
"","null","html-keyboard-response","297","2.0.0","293568","pm9rorbldaw","bigger","shark","Does our inherit knowledge on an item effect our decision making skills","","<div style=""font-size:60px;"">+</div>","null","","","","","","",""
"","535","image-keyboard-response","298","2.0.0","294103","pm9rorbldaw","bigger","shark","Does our inherit knowledge on an item effect our decision making skills","","stimuli/36-Inongruent.jpg","m","","","","","right","m","true"
"","null","html-keyboard-response","299","2.0.0","295008","pm9rorbldaw","bigger","shark","Does our inherit knowledge on an item effect our decision making skills","","<p>Correct!</p>","null","","","","","","",""
"","null","html-keyboard-response","300","2.0.0","296017","pm9rorbldaw","bigger","shark","Does our inherit knowledge on an item effect our decision making skills","","<div style=""font-size:60px;"">+</div>","null","","","","","","",""
"","465","image-keyboard-response","301","2.0.0","296482","pm9rorbldaw","bigger","shark","Does our inherit knowledge on an item effect our decision making skills","","stimuli/27-Congruent.jpg","z","","","","","left","z","true"
"","null","html-keyboard-response","302","2.0.0","297397","pm9rorbldaw","bigger","shark","Does our inherit knowledge on an item effect our decision making skills","","<p>Correct!</p>","null","","","","","","",""
"","null","html-keyboard-response","303","2.0.0","298410","pm9rorbldaw","bigger","shark","Does our inherit knowledge on an item effect our decision making skills","","<div style=""font-size:60px;"">+</div>","null","","","","","","",""
"","401","image-keyboard-response","304","2.0.0","298811","pm9rorbldaw","bigger","shark","Does our inherit knowledge on an item effect our decision making skills","","stimuli/1-Inongruent.jpg","m","","","","","right","m","true"
"","null","html-keyboard-response","305","2.0.0","299716","pm9rorbldaw","bigger","shark","Does our inherit knowledge on an item effect our decision making skills","","<p>Correct!</p>","null","","","","","","",""
"","null","html-keyboard-response","306","2.0.0","300724","pm9rorbldaw","bigger","shark","Does our inherit knowledge on an item effect our decision making skills","","<div style=""font-size:60px;"">+</div>","null","","","","","","",""
"","723","image-keyboard-response","307","2.0.0","301448","pm9rorbldaw","bigger","shark","Does our inherit knowledge on an item effect our decision making skills","","stimuli/35-Congruent.jpg","z","","","","","left","z","true"
"","null","html-keyboard-response","308","2.0.0","302357","pm9rorbldaw","bigger","shark","Does our inherit knowledge on an item effect our decision making skills","","<p>Correct!</p>","null","","","","","","",""
"","null","html-keyboard-response","309","2.0.0","303364","pm9rorbldaw","bigger","shark","Does our inherit knowledge on an item effect our decision making skills","","<div style=""font-size:60px;"">+</div>","null","","","","","","",""
"","553","image-keyboard-response","310","2.0.0","303918","pm9rorbldaw","bigger","shark","Does our inherit knowledge on an item effect our decision making skills","","stimuli/4-Inongruent.jpg","m","","","","","right","m","true"
"","null","html-keyboard-response","311","2.0.0","304821","pm9rorbldaw","bigger","shark","Does our inherit knowledge on an item effect our decision making skills","","<p>Correct!</p>","null","","","","","","",""
"","null","html-keyboard-response","312","2.0.0","305824","pm9rorbldaw","bigger","shark","Does our inherit knowledge on an item effect our decision making skills","","<div style=""font-size:60px;"">+</div>","null","","","","","","",""
"","619","image-keyboard-response","313","2.0.0","306443","pm9rorbldaw","bigger","shark","Does our inherit knowledge on an item effect our decision making skills","","stimuli/24-Inongruent.jpg","m","","","","","right","m","true"
"","null","html-keyboard-response","314","2.0.0","307352","pm9rorbldaw","bigger","shark","Does our inherit knowledge on an item effect our decision making skills","","<p>Correct!</p>","null","","","","","","",""
"","null","html-keyboard-response","315","2.0.0","308355","pm9rorbldaw","bigger","shark","Does our inherit knowledge on an item effect our decision making skills","","<div style=""font-size:60px;"">+</div>","null","","","","","","",""
"","445","image-keyboard-response","316","2.0.0","308801","pm9rorbldaw","bigger","shark","Does our inherit knowledge on an item effect our decision making skills","","stimuli/28-Inongruent.jpg","m","","","","","right","m","true"
"","null","html-keyboard-response","317","2.0.0","309711","pm9rorbldaw","bigger","shark","Does our inherit knowledge on an item effect our decision making skills","","<p>Correct!</p>","null","","","","","","",""
"","null","html-keyboard-response","318","2.0.0","310725","pm9rorbldaw","bigger","shark","Does our inherit knowledge on an item effect our decision making skills","","<div style=""font-size:60px;"">+</div>","null","","","","","","",""
"","486","image-keyboard-response","319","2.0.0","311211","pm9rorbldaw","bigger","shark","Does our inherit knowledge on an item effect our decision making skills","","stimuli/19-Congruent.jpg","z","","","","","left","z","true"
"","null","html-keyboard-response","320","2.0.0","312119","pm9rorbldaw","bigger","shark","Does our inherit knowledge on an item effect our decision making skills","","<p>Correct!</p>","null","","","","","","",""
"","null","html-keyboard-response","321","2.0.0","313134","pm9rorbldaw","bigger","shark","Does our inherit knowledge on an item effect our decision making skills","","<div style=""font-size:60px;"">+</div>","null","","","","","","",""
"","396","image-keyboard-response","322","2.0.0","313531","pm9rorbldaw","bigger","shark","Does our inherit knowledge on an item effect our decision making skills","","stimuli/2-Inongruent.jpg","m","","","","","right","m","true"
"","null","html-keyboard-response","323","2.0.0","314434","pm9rorbldaw","bigger","shark","Does our inherit knowledge on an item effect our decision making skills","","<p>Correct!</p>","null","","","","","","",""
"","null","html-keyboard-response","324","2.0.0","315436","pm9rorbldaw","bigger","shark","Does our inherit knowledge on an item effect our decision making skills","","<div style=""font-size:60px;"">+</div>","null","","","","","","",""
"","455","image-keyboard-response","325","2.0.0","315892","pm9rorbldaw","bigger","shark","Does our inherit knowledge on an item effect our decision making skills","","stimuli/20-Congruent.jpg","z","","","","","left","z","true"
"","null","html-keyboard-response","326","2.0.0","316798","pm9rorbldaw","bigger","shark","Does our inherit knowledge on an item effect our decision making skills","","<p>Correct!</p>","null","","","","","","",""
"","null","html-keyboard-response","327","2.0.0","317803","pm9rorbldaw","bigger","shark","Does our inherit knowledge on an item effect our decision making skills","","<div style=""font-size:60px;"">+</div>","null","","","","","","",""
"","621","image-keyboard-response","328","2.0.0","318425","pm9rorbldaw","bigger","shark","Does our inherit knowledge on an item effect our decision making skills","","stimuli/14-Inongruent.jpg","m","","","","","right","m","true"
"","null","html-keyboard-response","329","2.0.0","319337","pm9rorbldaw","bigger","shark","Does our inherit knowledge on an item effect our decision making skills","","<p>Correct!</p>","null","","","","","","",""
"","null","html-keyboard-response","330","2.0.0","320349","pm9rorbldaw","bigger","shark","Does our inherit knowledge on an item effect our decision making skills","","<div style=""font-size:60px;"">+</div>","null","","","","","","",""
"","465","image-keyboard-response","331","2.0.0","320815","pm9rorbldaw","bigger","shark","Does our inherit knowledge on an item effect our decision making skills","","stimuli/21-Congruent.jpg","z","","","","","left","z","true"
"","null","html-keyboard-response","332","2.0.0","321727","pm9rorbldaw","bigger","shark","Does our inherit knowledge on an item effect our decision making skills","","<p>Correct!</p>","null","","","","","","",""
"","null","html-keyboard-response","333","2.0.0","322739","pm9rorbldaw","bigger","shark","Does our inherit knowledge on an item effect our decision making skills","","<div style=""font-size:60px;"">+</div>","null","","","","","","",""
"","544","image-keyboard-response","334","2.0.0","323283","pm9rorbldaw","bigger","shark","Does our inherit knowledge on an item effect our decision making skills","","stimuli/4-Congruent.jpg","m","","","","","left","z","false"
"","null","html-keyboard-response","335","2.0.0","328293","pm9rorbldaw","bigger","shark","Does our inherit knowledge on an item effect our decision making skills","","<p>Incorrect.</p><p>Remember to select the <b>bigger</b> image.</p><p>Continuing in 5 seconds...</p>","null","","","","","","",""
"","null","html-keyboard-response","336","2.0.0","329302","pm9rorbldaw","bigger","shark","Does our inherit knowledge on an item effect our decision making skills","","<div style=""font-size:60px;"">+</div>","null","","","","","","",""
"","530","image-keyboard-response","337","2.0.0","329833","pm9rorbldaw","bigger","shark","Does our inherit knowledge on an item effect our decision making skills","","stimuli/24-Congruent.jpg","z","","","","","left","z","true"
"","null","html-keyboard-response","338","2.0.0","330740","pm9rorbldaw","bigger","shark","Does our inherit knowledge on an item effect our decision making skills","","<p>Correct!</p>","null","","","","","","",""
"","null","html-keyboard-response","339","2.0.0","331754","pm9rorbldaw","bigger","shark","Does our inherit knowledge on an item effect our decision making skills","","<div style=""font-size:60px;"">+</div>","null","","","","","","",""
"","676","image-keyboard-response","340","2.0.0","332430","pm9rorbldaw","bigger","shark","Does our inherit knowledge on an item effect our decision making skills","","stimuli/33-Congruent.jpg","z","","","","","left","z","true"
"","null","html-keyboard-response","341","2.0.0","333332","pm9rorbldaw","bigger","shark","Does our inherit knowledge on an item effect our decision making skills","","<p>Correct!</p>","null","","","","","","",""
"","null","html-keyboard-response","342","2.0.0","334336","pm9rorbldaw","bigger","shark","Does our inherit knowledge on an item effect our decision making skills","","<div style=""font-size:60px;"">+</div>","null","","","","","","",""
"","799","image-keyboard-response","343","2.0.0","335136","pm9rorbldaw","bigger","shark","Does our inherit knowledge on an item effect our decision making skills","","stimuli/17-Congruent.jpg","z","","","","","left","z","true"
"","null","html-keyboard-response","344","2.0.0","336040","pm9rorbldaw","bigger","shark","Does our inherit knowledge on an item effect our decision making skills","","<p>Correct!</p>","null","","","","","","",""
"","null","html-keyboard-response","345","2.0.0","337051","pm9rorbldaw","bigger","shark","Does our inherit knowledge on an item effect our decision making skills","","<div style=""font-size:60px;"">+</div>","null","","","","","","",""
"","495","image-keyboard-response","346","2.0.0","337546","pm9rorbldaw","bigger","shark","Does our inherit knowledge on an item effect our decision making skills","","stimuli/4-Inongruent.jpg","m","","","","","right","m","true"
"","null","html-keyboard-response","347","2.0.0","338459","pm9rorbldaw","bigger","shark","Does our inherit knowledge on an item effect our decision making skills","","<p>Correct!</p>","null","","","","","","",""
"","null","html-keyboard-response","348","2.0.0","339471","pm9rorbldaw","bigger","shark","Does our inherit knowledge on an item effect our decision making skills","","<div style=""font-size:60px;"">+</div>","null","","","","","","",""
"","460","image-keyboard-response","349","2.0.0","339933","pm9rorbldaw","bigger","shark","Does our inherit knowledge on an item effect our decision making skills","","stimuli/26-Congruent.jpg","z","","","","","left","z","true"
"","null","html-keyboard-response","350","2.0.0","340846","pm9rorbldaw","bigger","shark","Does our inherit knowledge on an item effect our decision making skills","","<p>Correct!</p>","null","","","","","","",""
"","null","html-keyboard-response","351","2.0.0","341855","pm9rorbldaw","bigger","shark","Does our inherit knowledge on an item effect our decision making skills","","<div style=""font-size:60px;"">+</div>","null","","","","","","",""
"","483","image-keyboard-response","352","2.0.0","342340","pm9rorbldaw","bigger","shark","Does our inherit knowledge on an item effect our decision making skills","","stimuli/2-Congruent.jpg","z","","","","","left","z","true"
"","null","html-keyboard-response","353","2.0.0","343249","pm9rorbldaw","bigger","shark","Does our inherit knowledge on an item effect our decision making skills","","<p>Correct!</p>","null","","","","","","",""
"","null","html-keyboard-response","354","2.0.0","344259","pm9rorbldaw","bigger","shark","Does our inherit knowledge on an item effect our decision making skills","","<div style=""font-size:60px;"">+</div>","null","","","","","","",""
"","608","image-keyboard-response","355","2.0.0","344868","pm9rorbldaw","bigger","shark","Does our inherit knowledge on an item effect our decision making skills","","stimuli/16-Inongruent.jpg","m","","","","","right","m","true"
"","null","html-keyboard-response","356","2.0.0","345780","pm9rorbldaw","bigger","shark","Does our inherit knowledge on an item effect our decision making skills","","<p>Correct!</p>","null","","","","","","",""
"","null","html-keyboard-response","357","2.0.0","346796","pm9rorbldaw","bigger","shark","Does our inherit knowledge on an item effect our decision making skills","","<div style=""font-size:60px;"">+</div>","null","","","","","","",""
"","431","image-keyboard-response","358","2.0.0","347228","pm9rorbldaw","bigger","shark","Does our inherit knowledge on an item effect our decision making skills","","stimuli/34-Congruent.jpg","z","","","","","left","z","true"
"","null","html-keyboard-response","359","2.0.0","348132","pm9rorbldaw","bigger","shark","Does our inherit knowledge on an item effect our decision making skills","","<p>Correct!</p>","null","","","","","","",""
"","null","html-keyboard-response","360","2.0.0","349148","pm9rorbldaw","bigger","shark","Does our inherit knowledge on an item effect our decision making skills","","<div style=""font-size:60px;"">+</div>","null","","","","","","",""
"","507","image-keyboard-response","361","2.0.0","349656","pm9rorbldaw","bigger","shark","Does our inherit knowledge on an item effect our decision making skills","","stimuli/9-Congruent.jpg","z","","","","","left","z","true"
"","null","html-keyboard-response","362","2.0.0","350569","pm9rorbldaw","bigger","shark","Does our inherit knowledge on an item effect our decision making skills","","<p>Correct!</p>","null","","","","","","",""
"","null","html-keyboard-response","363","2.0.0","351575","pm9rorbldaw","bigger","shark","Does our inherit knowledge on an item effect our decision making skills","","<div style=""font-size:60px;"">+</div>","null","","","","","","",""
"","476","image-keyboard-response","364","2.0.0","352052","pm9rorbldaw","bigger","shark","Does our inherit knowledge on an item effect our decision making skills","","stimuli/1-Congruent.jpg","z","","","","","left","z","true"
"","null","html-keyboard-response","365","2.0.0","352955","pm9rorbldaw","bigger","shark","Does our inherit knowledge on an item effect our decision making skills","","<p>Correct!</p>","null","","","","","","",""
"","null","html-keyboard-response","366","2.0.0","353966","pm9rorbldaw","bigger","shark","Does our inherit knowledge on an item effect our decision making skills","","<div style=""font-size:60px;"">+</div>","null","","","","","","",""
"","500","image-keyboard-response","367","2.0.0","354467","pm9rorbldaw","bigger","shark","Does our inherit knowledge on an item effect our decision making skills","","stimuli/9-Congruent.jpg","z","","","","","left","z","true"
"","null","html-keyboard-response","368","2.0.0","355370","pm9rorbldaw","bigger","shark","Does our inherit knowledge on an item effect our decision making skills","","<p>Correct!</p>","null","","","","","","",""
"","null","html-keyboard-response","369","2.0.0","356374","pm9rorbldaw","bigger","shark","Does our inherit knowledge on an item effect our decision making skills","","<div style=""font-size:60px;"">+</div>","null","","","","","","",""
"","623","image-keyboard-response","370","2.0.0","356997","pm9rorbldaw","bigger","shark","Does our inherit knowledge on an item effect our decision making skills","","stimuli/26-Congruent.jpg","z","","","","","left","z","true"
"","null","html-keyboard-response","371","2.0.0","357906","pm9rorbldaw","bigger","shark","Does our inherit knowledge on an item effect our decision making skills","","<p>Correct!</p>","null","","","","","","",""
"","null","html-keyboard-response","372","2.0.0","358912","pm9rorbldaw","bigger","shark","Does our inherit knowledge on an item effect our decision making skills","","<div style=""font-size:60px;"">+</div>","null","","","","","","",""
"","532","image-keyboard-response","373","2.0.0","359445","pm9rorbldaw","bigger","shark","Does our inherit knowledge on an item effect our decision making skills","","stimuli/12-Inongruent.jpg","m","","","","","right","m","true"
"","null","html-keyboard-response","374","2.0.0","360349","pm9rorbldaw","bigger","shark","Does our inherit knowledge on an item effect our decision making skills","","<p>Correct!</p>","null","","","","","","",""
"","null","html-keyboard-response","375","2.0.0","361365","pm9rorbldaw","bigger","shark","Does our inherit knowledge on an item effect our decision making skills","","<div style=""font-size:60px;"">+</div>","null","","","","","","",""
"","551","image-keyboard-response","376","2.0.0","361917","pm9rorbldaw","bigger","shark","Does our inherit knowledge on an item effect our decision making skills","","stimuli/17-Inongruent.jpg","m","","","","","right","m","true"
"","null","html-keyboard-response","377","2.0.0","362821","pm9rorbldaw","bigger","shark","Does our inherit knowledge on an item effect our decision making skills","","<p>Correct!</p>","null","","","","","","",""
"","null","html-keyboard-response","378","2.0.0","363832","pm9rorbldaw","bigger","shark","Does our inherit knowledge on an item effect our decision making skills","","<div style=""font-size:60px;"">+</div>","null","","","","","","",""
"","554","image-keyboard-response","379","2.0.0","364387","pm9rorbldaw","bigger","shark","Does our inherit knowledge on an item effect our decision making skills","","stimuli/5-Inongruent.jpg","m","","","","","right","m","true"
"","null","html-keyboard-response","380","2.0.0","365301","pm9rorbldaw","bigger","shark","Does our inherit knowledge on an item effect our decision making skills","","<p>Correct!</p>","null","","","","","","",""
"","null","html-keyboard-response","381","2.0.0","366302","pm9rorbldaw","bigger","shark","Does our inherit knowledge on an item effect our decision making skills","","<div style=""font-size:60px;"">+</div>","null","","","","","","",""
"","537","image-keyboard-response","382","2.0.0","366841","pm9rorbldaw","bigger","shark","Does our inherit knowledge on an item effect our decision making skills","","stimuli/34-Inongruent.jpg","m","","","","","right","m","true"
"","null","html-keyboard-response","383","2.0.0","367749","pm9rorbldaw","bigger","shark","Does our inherit knowledge on an item effect our decision making skills","","<p>Correct!</p>","null","","","","","","",""
"","null","html-keyboard-response","384","2.0.0","368754","pm9rorbldaw","bigger","shark","Does our inherit knowledge on an item effect our decision making skills","","<div style=""font-size:60px;"">+</div>","null","","","","","","",""
"","701","image-keyboard-response","385","2.0.0","369457","pm9rorbldaw","bigger","shark","Does our inherit knowledge on an item effect our decision making skills","","stimuli/18-Congruent.jpg","z","","","","","left","z","true"
"","null","html-keyboard-response","386","2.0.0","370358","pm9rorbldaw","bigger","shark","Does our inherit knowledge on an item effect our decision making skills","","<p>Correct!</p>","null","","","","","","",""
"","null","html-keyboard-response","387","2.0.0","371369","pm9rorbldaw","bigger","shark","Does our inherit knowledge on an item effect our decision making skills","","<div style=""font-size:60px;"">+</div>","null","","","","","","",""
"","407","image-keyboard-response","388","2.0.0","371777","pm9rorbldaw","bigger","shark","Does our inherit knowledge on an item effect our decision making skills","","stimuli/18-Inongruent.jpg","m","","","","","right","m","true"
"","null","html-keyboard-response","389","2.0.0","372690","pm9rorbldaw","bigger","shark","Does our inherit knowledge on an item effect our decision making skills","","<p>Correct!</p>","null","","","","","","",""
"","null","html-keyboard-response","390","2.0.0","373705","pm9rorbldaw","bigger","shark","Does our inherit knowledge on an item effect our decision making skills","","<div style=""font-size:60px;"">+</div>","null","","","","","","",""
"","496","image-keyboard-response","391","2.0.0","374203","pm9rorbldaw","bigger","shark","Does our inherit knowledge on an item effect our decision making skills","","stimuli/21-Inongruent.jpg","m","","","","","right","m","true"
"","null","html-keyboard-response","392","2.0.0","375114","pm9rorbldaw","bigger","shark","Does our inherit knowledge on an item effect our decision making skills","","<p>Correct!</p>","null","","","","","","",""
"","null","html-keyboard-response","393","2.0.0","376123","pm9rorbldaw","bigger","shark","Does our inherit knowledge on an item effect our decision making skills","","<div style=""font-size:60px;"">+</div>","null","","","","","","",""
"","649","image-keyboard-response","394","2.0.0","376772","pm9rorbldaw","bigger","shark","Does our inherit knowledge on an item effect our decision making skills","","stimuli/23-Congruent.jpg","z","","","","","left","z","true"
"","null","html-keyboard-response","395","2.0.0","377680","pm9rorbldaw","bigger","shark","Does our inherit knowledge on an item effect our decision making skills","","<p>Correct!</p>","null","","","","","","",""
"","null","html-keyboard-response","396","2.0.0","378687","pm9rorbldaw","bigger","shark","Does our inherit knowledge on an item effect our decision making skills","","<div style=""font-size:60px;"">+</div>","null","","","","","","",""
"","587","image-keyboard-response","397","2.0.0","379275","pm9rorbldaw","bigger","shark","Does our inherit knowledge on an item effect our decision making skills","","stimuli/12-Congruent.jpg","z","","","","","left","z","true"
"","null","html-keyboard-response","398","2.0.0","380183","pm9rorbldaw","bigger","shark","Does our inherit knowledge on an item effect our decision making skills","","<p>Correct!</p>","null","","","","","","",""
"","null","html-keyboard-response","399","2.0.0","381191","pm9rorbldaw","bigger","shark","Does our inherit knowledge on an item effect our decision making skills","","<div style=""font-size:60px;"">+</div>","null","","","","","","",""
"","426","image-keyboard-response","400","2.0.0","381617","pm9rorbldaw","bigger","shark","Does our inherit knowledge on an item effect our decision making skills","","stimuli/24-Congruent.jpg","z","","","","","left","z","true"
"","null","html-keyboard-response","401","2.0.0","382524","pm9rorbldaw","bigger","shark","Does our inherit knowledge on an item effect our decision making skills","","<p>Correct!</p>","null","","","","","","",""
"","null","html-keyboard-response","402","2.0.0","383540","pm9rorbldaw","bigger","shark","Does our inherit knowledge on an item effect our decision making skills","","<div style=""font-size:60px;"">+</div>","null","","","","","","",""
"","575","image-keyboard-response","403","2.0.0","384116","pm9rorbldaw","bigger","shark","Does our inherit knowledge on an item effect our decision making skills","","stimuli/7-Congruent.jpg","z","","","","","left","z","true"
"","null","html-keyboard-response","404","2.0.0","385021","pm9rorbldaw","bigger","shark","Does our inherit knowledge on an item effect our decision making skills","","<p>Correct!</p>","null","","","","","","",""
"","null","html-keyboard-response","405","2.0.0","386035","pm9rorbldaw","bigger","shark","Does our inherit knowledge on an item effect our decision making skills","","<div style=""font-size:60px;"">+</div>","null","","","","","","",""
"","413","image-keyboard-response","406","2.0.0","386449","pm9rorbldaw","bigger","shark","Does our inherit knowledge on an item effect our decision making skills","","stimuli/19-Inongruent.jpg","m","","","","","right","m","true"
"","null","html-keyboard-response","407","2.0.0","387354","pm9rorbldaw","bigger","shark","Does our inherit knowledge on an item effect our decision making skills","","<p>Correct!</p>","null","","","","","","",""
"","null","html-keyboard-response","408","2.0.0","388358","pm9rorbldaw","bigger","shark","Does our inherit knowledge on an item effect our decision making skills","","<div style=""font-size:60px;"">+</div>","null","","","","","","",""
"","607","image-keyboard-response","409","2.0.0","388966","pm9rorbldaw","bigger","shark","Does our inherit knowledge on an item effect our decision making skills","","stimuli/12-Congruent.jpg","z","","","","","left","z","true"
"","null","html-keyboard-response","410","2.0.0","389871","pm9rorbldaw","bigger","shark","Does our inherit knowledge on an item effect our decision making skills","","<p>Correct!</p>","null","","","","","","",""
"","null","html-keyboard-response","411","2.0.0","390876","pm9rorbldaw","bigger","shark","Does our inherit knowledge on an item effect our decision making skills","","<div style=""font-size:60px;"">+</div>","null","","","","","","",""
"","375","image-keyboard-response","412","2.0.0","391252","pm9rorbldaw","bigger","shark","Does our inherit knowledge on an item effect our decision making skills","","stimuli/29-Inongruent.jpg","m","","","","","right","m","true"
"","null","html-keyboard-response","413","2.0.0","392154","pm9rorbldaw","bigger","shark","Does our inherit knowledge on an item effect our decision making skills","","<p>Correct!</p>","null","","","","","","",""
"","null","html-keyboard-response","414","2.0.0","393160","pm9rorbldaw","bigger","shark","Does our inherit knowledge on an item effect our decision making skills","","<div style=""font-size:60px;"">+</div>","null","","","","","","",""
"","844","image-keyboard-response","415","2.0.0","394005","pm9rorbldaw","bigger","shark","Does our inherit knowledge on an item effect our decision making skills","","stimuli/16-Congruent.jpg","z","","","","","left","z","true"
"","null","html-keyboard-response","416","2.0.0","394920","pm9rorbldaw","bigger","shark","Does our inherit knowledge on an item effect our decision making skills","","<p>Correct!</p>","null","","","","","","",""
"","null","html-keyboard-response","417","2.0.0","395935","pm9rorbldaw","bigger","shark","Does our inherit knowledge on an item effect our decision making skills","","<div style=""font-size:60px;"">+</div>","null","","","","","","",""
"","420","image-keyboard-response","418","2.0.0","396355","pm9rorbldaw","bigger","shark","Does our inherit knowledge on an item effect our decision making skills","","stimuli/10-Inongruent.jpg","m","","","","","right","m","true"
"","null","html-keyboard-response","419","2.0.0","397262","pm9rorbldaw","bigger","shark","Does our inherit knowledge on an item effect our decision making skills","","<p>Correct!</p>","null","","","","","","",""
"","null","html-keyboard-response","420","2.0.0","398267","pm9rorbldaw","bigger","shark","Does our inherit knowledge on an item effect our decision making skills","","<div style=""font-size:60px;"">+</div>","null","","","","","","",""
"","442","image-keyboard-response","421","2.0.0","398710","pm9rorbldaw","bigger","shark","Does our inherit knowledge on an item effect our decision making skills","","stimuli/20-Congruent.jpg","z","","","","","left","z","true"
"","null","html-keyboard-response","422","2.0.0","399613","pm9rorbldaw","bigger","shark","Does our inherit knowledge on an item effect our decision making skills","","<p>Correct!</p>","null","","","","","","",""
"","null","html-keyboard-response","423","2.0.0","400625","pm9rorbldaw","bigger","shark","Does our inherit knowledge on an item effect our decision making skills","","<div style=""font-size:60px;"">+</div>","null","","","","","","",""
"","847","image-keyboard-response","424","2.0.0","401474","pm9rorbldaw","bigger","shark","Does our inherit knowledge on an item effect our decision making skills","","stimuli/13-Congruent.jpg","z","","","","","left","z","true"
"","null","html-keyboard-response","425","2.0.0","402379","pm9rorbldaw","bigger","shark","Does our inherit knowledge on an item effect our decision making skills","","<p>Correct!</p>","null","","","","","","",""
"","null","html-keyboard-response","426","2.0.0","403382","pm9rorbldaw","bigger","shark","Does our inherit knowledge on an item effect our decision making skills","","<div style=""font-size:60px;"">+</div>","null","","","","","","",""
"","611","image-keyboard-response","427","2.0.0","403995","pm9rorbldaw","bigger","shark","Does our inherit knowledge on an item effect our decision making skills","","stimuli/28-Congruent.jpg","z","","","","","left","z","true"
"","null","html-keyboard-response","428","2.0.0","404904","pm9rorbldaw","bigger","shark","Does our inherit knowledge on an item effect our decision making skills","","<p>Correct!</p>","null","","","","","","",""
"","null","html-keyboard-response","429","2.0.0","405911","pm9rorbldaw","bigger","shark","Does our inherit knowledge on an item effect our decision making skills","","<div style=""font-size:60px;"">+</div>","null","","","","","","",""
"","435","image-keyboard-response","430","2.0.0","406347","pm9rorbldaw","bigger","shark","Does our inherit knowledge on an item effect our decision making skills","","stimuli/1-Inongruent.jpg","m","","","","","right","m","true"
"","null","html-keyboard-response","431","2.0.0","407255","pm9rorbldaw","bigger","shark","Does our inherit knowledge on an item effect our decision making skills","","<p>Correct!</p>","null","","","","","","",""
"","null","html-keyboard-response","432","2.0.0","408259","pm9rorbldaw","bigger","shark","Does our inherit knowledge on an item effect our decision making skills","","<div style=""font-size:60px;"">+</div>","null","","","","","","",""
"","497","image-keyboard-response","433","2.0.0","408756","pm9rorbldaw","bigger","shark","Does our inherit knowledge on an item effect our decision making skills","","stimuli/26-Inongruent.jpg","m","","","","","right","m","true"
"","null","html-keyboard-response","434","2.0.0","409662","pm9rorbldaw","bigger","shark","Does our inherit knowledge on an item effect our decision making skills","","<p>Correct!</p>","null","","","","","","",""
"","null","html-keyboard-response","435","2.0.0","410672","pm9rorbldaw","bigger","shark","Does our inherit knowledge on an item effect our decision making skills","","<div style=""font-size:60px;"">+</div>","null","","","","","","",""
"","460","image-keyboard-response","436","2.0.0","411132","pm9rorbldaw","bigger","shark","Does our inherit knowledge on an item effect our decision making skills","","stimuli/23-Inongruent.jpg","m","","","","","right","m","true"
"","null","html-keyboard-response","437","2.0.0","412035","pm9rorbldaw","bigger","shark","Does our inherit knowledge on an item effect our decision making skills","","<p>Correct!</p>","null","","","","","","",""
"","2844","html-keyboard-response","438","2.0.0","414880","pm9rorbldaw","bigger","shark","Does our inherit knowledge on an item effect our decision making skills","","<p>You have completed the experiment!</p>
              <p>Your accuracy was: 99.30555555555556%.</p>
              <p>Thank you for participating.</p>
              <p>Press any key to continue.</p>"," ","","","","","","",""
