"success","rt","trial_type","trial_index","plugin_version","time_elapsed","random_id","condition","participant","participant_thoughts","participant_difficulties","stimulus","response","timeout","failed_images","failed_audio","failed_video","correct_response","correct_response_key","correct"
"true","26819","fullscreen","0","null","27826","pt67jxgw74e","smaller","seal","to see if i was going to choose the smaller based on actual object size vs the size that was shown","no","","","","","","","","",""
"","19713","html-keyboard-response","1","2.0.0","47540","pt67jxgw74e","smaller","seal","to see if i was going to choose the smaller based on actual object size vs the size that was shown","no","Welcome to the Size Stroop experiment. Press any key to begin."," ","","","","","","",""
"","null","html-keyboard-response","2","2.0.0","48542","pt67jxgw74e","smaller","seal","to see if i was going to choose the smaller based on actual object size vs the size that was shown","no","This trial will be in fullscreen mode.","null","","","","","","",""
"","23369","survey-text","3","2.0.0","71915","pt67jxgw74e","smaller","seal","to see if i was going to choose the smaller based on actual object size vs the size that was shown","no","","{""participant_id"":""seal""}","","","","","","",""
"","19261","html-keyboard-response","4","2.0.0","91177","pt67jxgw74e","smaller","seal","to see if i was going to choose the smaller based on actual object size vs the size that was shown","no","<p>In this experiment, two images will appear on the screen. Identify the <strong>smaller</strong> image.</p>
              <p>If the image on the left is smaller, press ""z"". If the image on the right is smaller, press ""m"".</p>
              <p>Press any key to begin.</p>"," ","","","","","","",""
"true","","preload","5","2.0.0","91692","pt67jxgw74e","smaller","seal","to see if i was going to choose the smaller based on actual object size vs the size that was shown","no","","","false","[]","[]","[]","","",""
"","null","html-keyboard-response","6","2.0.0","92694","pt67jxgw74e","smaller","seal","to see if i was going to choose the smaller based on actual object size vs the size that was shown","no","<div style=""font-size:60px;"">+</div>","null","","","","","","",""
"","1586","image-keyboard-response","7","2.0.0","94283","pt67jxgw74e","smaller","seal","to see if i was going to choose the smaller based on actual object size vs the size that was shown","no","stimuli/34-Inongruent.jpg","m","","","","","left","z","false"
"","null","html-keyboard-response","8","2.0.0","99286","pt67jxgw74e","smaller","seal","to see if i was going to choose the smaller based on actual object size vs the size that was shown","no","<p>Incorrect.</p><p>Remember to select the <b>smaller</b> image.</p><p>Continuing in 5 seconds...</p>","null","","","","","","",""
"","null","html-keyboard-response","9","2.0.0","100289","pt67jxgw74e","smaller","seal","to see if i was going to choose the smaller based on actual object size vs the size that was shown","no","<div style=""font-size:60px;"">+</div>","null","","","","","","",""
"","700","image-keyboard-response","10","2.0.0","100990","pt67jxgw74e","smaller","seal","to see if i was going to choose the smaller based on actual object size vs the size that was shown","no","stimuli/15-Congruent.jpg","m","","","","","right","m","true"
"","null","html-keyboard-response","11","2.0.0","101892","pt67jxgw74e","smaller","seal","to see if i was going to choose the smaller based on actual object size vs the size that was shown","no","<p>Correct!</p>","null","","","","","","",""
"","null","html-keyboard-response","12","2.0.0","102895","pt67jxgw74e","smaller","seal","to see if i was going to choose the smaller based on actual object size vs the size that was shown","no","<div style=""font-size:60px;"">+</div>","null","","","","","","",""
"","561","image-keyboard-response","13","2.0.0","103457","pt67jxgw74e","smaller","seal","to see if i was going to choose the smaller based on actual object size vs the size that was shown","no","stimuli/24-Congruent.jpg","m","","","","","right","m","true"
"","null","html-keyboard-response","14","2.0.0","104359","pt67jxgw74e","smaller","seal","to see if i was going to choose the smaller based on actual object size vs the size that was shown","no","<p>Correct!</p>","null","","","","","","",""
"","null","html-keyboard-response","15","2.0.0","105361","pt67jxgw74e","smaller","seal","to see if i was going to choose the smaller based on actual object size vs the size that was shown","no","<div style=""font-size:60px;"">+</div>","null","","","","","","",""
"","429","image-keyboard-response","16","2.0.0","105792","pt67jxgw74e","smaller","seal","to see if i was going to choose the smaller based on actual object size vs the size that was shown","no","stimuli/25-Inongruent.jpg","z","","","","","left","z","true"
"","null","html-keyboard-response","17","2.0.0","106693","pt67jxgw74e","smaller","seal","to see if i was going to choose the smaller based on actual object size vs the size that was shown","no","<p>Correct!</p>","null","","","","","","",""
"","null","html-keyboard-response","18","2.0.0","107696","pt67jxgw74e","smaller","seal","to see if i was going to choose the smaller based on actual object size vs the size that was shown","no","<div style=""font-size:60px;"">+</div>","null","","","","","","",""
"","674","image-keyboard-response","19","2.0.0","108371","pt67jxgw74e","smaller","seal","to see if i was going to choose the smaller based on actual object size vs the size that was shown","no","stimuli/30-Inongruent.jpg","z","","","","","left","z","true"
"","null","html-keyboard-response","20","2.0.0","109274","pt67jxgw74e","smaller","seal","to see if i was going to choose the smaller based on actual object size vs the size that was shown","no","<p>Correct!</p>","null","","","","","","",""
"","null","html-keyboard-response","21","2.0.0","110276","pt67jxgw74e","smaller","seal","to see if i was going to choose the smaller based on actual object size vs the size that was shown","no","<div style=""font-size:60px;"">+</div>","null","","","","","","",""
"","485","image-keyboard-response","22","2.0.0","110761","pt67jxgw74e","smaller","seal","to see if i was going to choose the smaller based on actual object size vs the size that was shown","no","stimuli/18-Inongruent.jpg","z","","","","","left","z","true"
"","null","html-keyboard-response","23","2.0.0","111664","pt67jxgw74e","smaller","seal","to see if i was going to choose the smaller based on actual object size vs the size that was shown","no","<p>Correct!</p>","null","","","","","","",""
"","null","html-keyboard-response","24","2.0.0","112666","pt67jxgw74e","smaller","seal","to see if i was going to choose the smaller based on actual object size vs the size that was shown","no","<div style=""font-size:60px;"">+</div>","null","","","","","","",""
"","508","image-keyboard-response","25","2.0.0","113175","pt67jxgw74e","smaller","seal","to see if i was going to choose the smaller based on actual object size vs the size that was shown","no","stimuli/4-Congruent.jpg","m","","","","","right","m","true"
"","null","html-keyboard-response","26","2.0.0","114077","pt67jxgw74e","smaller","seal","to see if i was going to choose the smaller based on actual object size vs the size that was shown","no","<p>Correct!</p>","null","","","","","","",""
"","null","html-keyboard-response","27","2.0.0","115079","pt67jxgw74e","smaller","seal","to see if i was going to choose the smaller based on actual object size vs the size that was shown","no","<div style=""font-size:60px;"">+</div>","null","","","","","","",""
"","532","image-keyboard-response","28","2.0.0","115612","pt67jxgw74e","smaller","seal","to see if i was going to choose the smaller based on actual object size vs the size that was shown","no","stimuli/24-Congruent.jpg","m","","","","","right","m","true"
"","null","html-keyboard-response","29","2.0.0","116514","pt67jxgw74e","smaller","seal","to see if i was going to choose the smaller based on actual object size vs the size that was shown","no","<p>Correct!</p>","null","","","","","","",""
"","null","html-keyboard-response","30","2.0.0","117516","pt67jxgw74e","smaller","seal","to see if i was going to choose the smaller based on actual object size vs the size that was shown","no","<div style=""font-size:60px;"">+</div>","null","","","","","","",""
"","465","image-keyboard-response","31","2.0.0","117982","pt67jxgw74e","smaller","seal","to see if i was going to choose the smaller based on actual object size vs the size that was shown","no","stimuli/2-Inongruent.jpg","z","","","","","left","z","true"
"","null","html-keyboard-response","32","2.0.0","118883","pt67jxgw74e","smaller","seal","to see if i was going to choose the smaller based on actual object size vs the size that was shown","no","<p>Correct!</p>","null","","","","","","",""
"","null","html-keyboard-response","33","2.0.0","119885","pt67jxgw74e","smaller","seal","to see if i was going to choose the smaller based on actual object size vs the size that was shown","no","<div style=""font-size:60px;"">+</div>","null","","","","","","",""
"","562","image-keyboard-response","34","2.0.0","120448","pt67jxgw74e","smaller","seal","to see if i was going to choose the smaller based on actual object size vs the size that was shown","no","stimuli/28-Inongruent.jpg","z","","","","","left","z","true"
"","null","html-keyboard-response","35","2.0.0","121349","pt67jxgw74e","smaller","seal","to see if i was going to choose the smaller based on actual object size vs the size that was shown","no","<p>Correct!</p>","null","","","","","","",""
"","null","html-keyboard-response","36","2.0.0","122351","pt67jxgw74e","smaller","seal","to see if i was going to choose the smaller based on actual object size vs the size that was shown","no","<div style=""font-size:60px;"">+</div>","null","","","","","","",""
"","524","image-keyboard-response","37","2.0.0","122875","pt67jxgw74e","smaller","seal","to see if i was going to choose the smaller based on actual object size vs the size that was shown","no","stimuli/31-Congruent.jpg","m","","","","","right","m","true"
"","null","html-keyboard-response","38","2.0.0","123778","pt67jxgw74e","smaller","seal","to see if i was going to choose the smaller based on actual object size vs the size that was shown","no","<p>Correct!</p>","null","","","","","","",""
"","null","html-keyboard-response","39","2.0.0","124780","pt67jxgw74e","smaller","seal","to see if i was going to choose the smaller based on actual object size vs the size that was shown","no","<div style=""font-size:60px;"">+</div>","null","","","","","","",""
"","645","image-keyboard-response","40","2.0.0","125426","pt67jxgw74e","smaller","seal","to see if i was going to choose the smaller based on actual object size vs the size that was shown","no","stimuli/3-Inongruent.jpg","z","","","","","left","z","true"
"","null","html-keyboard-response","41","2.0.0","126327","pt67jxgw74e","smaller","seal","to see if i was going to choose the smaller based on actual object size vs the size that was shown","no","<p>Correct!</p>","null","","","","","","",""
"","null","html-keyboard-response","42","2.0.0","127329","pt67jxgw74e","smaller","seal","to see if i was going to choose the smaller based on actual object size vs the size that was shown","no","<div style=""font-size:60px;"">+</div>","null","","","","","","",""
"","556","image-keyboard-response","43","2.0.0","127887","pt67jxgw74e","smaller","seal","to see if i was going to choose the smaller based on actual object size vs the size that was shown","no","stimuli/36-Inongruent.jpg","z","","","","","left","z","true"
"","null","html-keyboard-response","44","2.0.0","128789","pt67jxgw74e","smaller","seal","to see if i was going to choose the smaller based on actual object size vs the size that was shown","no","<p>Correct!</p>","null","","","","","","",""
"","null","html-keyboard-response","45","2.0.0","129792","pt67jxgw74e","smaller","seal","to see if i was going to choose the smaller based on actual object size vs the size that was shown","no","<div style=""font-size:60px;"">+</div>","null","","","","","","",""
"","554","image-keyboard-response","46","2.0.0","130346","pt67jxgw74e","smaller","seal","to see if i was going to choose the smaller based on actual object size vs the size that was shown","no","stimuli/13-Congruent.jpg","m","","","","","right","m","true"
"","null","html-keyboard-response","47","2.0.0","131248","pt67jxgw74e","smaller","seal","to see if i was going to choose the smaller based on actual object size vs the size that was shown","no","<p>Correct!</p>","null","","","","","","",""
"","null","html-keyboard-response","48","2.0.0","132251","pt67jxgw74e","smaller","seal","to see if i was going to choose the smaller based on actual object size vs the size that was shown","no","<div style=""font-size:60px;"">+</div>","null","","","","","","",""
"","595","image-keyboard-response","49","2.0.0","132847","pt67jxgw74e","smaller","seal","to see if i was going to choose the smaller based on actual object size vs the size that was shown","no","stimuli/12-Inongruent.jpg","z","","","","","left","z","true"
"","null","html-keyboard-response","50","2.0.0","133750","pt67jxgw74e","smaller","seal","to see if i was going to choose the smaller based on actual object size vs the size that was shown","no","<p>Correct!</p>","null","","","","","","",""
"","null","html-keyboard-response","51","2.0.0","134753","pt67jxgw74e","smaller","seal","to see if i was going to choose the smaller based on actual object size vs the size that was shown","no","<div style=""font-size:60px;"">+</div>","null","","","","","","",""
"","509","image-keyboard-response","52","2.0.0","135263","pt67jxgw74e","smaller","seal","to see if i was going to choose the smaller based on actual object size vs the size that was shown","no","stimuli/5-Inongruent.jpg","z","","","","","left","z","true"
"","null","html-keyboard-response","53","2.0.0","136165","pt67jxgw74e","smaller","seal","to see if i was going to choose the smaller based on actual object size vs the size that was shown","no","<p>Correct!</p>","null","","","","","","",""
"","null","html-keyboard-response","54","2.0.0","137167","pt67jxgw74e","smaller","seal","to see if i was going to choose the smaller based on actual object size vs the size that was shown","no","<div style=""font-size:60px;"">+</div>","null","","","","","","",""
"","445","image-keyboard-response","55","2.0.0","137613","pt67jxgw74e","smaller","seal","to see if i was going to choose the smaller based on actual object size vs the size that was shown","no","stimuli/21-Congruent.jpg","m","","","","","right","m","true"
"","null","html-keyboard-response","56","2.0.0","138516","pt67jxgw74e","smaller","seal","to see if i was going to choose the smaller based on actual object size vs the size that was shown","no","<p>Correct!</p>","null","","","","","","",""
"","null","html-keyboard-response","57","2.0.0","139518","pt67jxgw74e","smaller","seal","to see if i was going to choose the smaller based on actual object size vs the size that was shown","no","<div style=""font-size:60px;"">+</div>","null","","","","","","",""
"","471","image-keyboard-response","58","2.0.0","139990","pt67jxgw74e","smaller","seal","to see if i was going to choose the smaller based on actual object size vs the size that was shown","no","stimuli/21-Congruent.jpg","m","","","","","right","m","true"
"","null","html-keyboard-response","59","2.0.0","140892","pt67jxgw74e","smaller","seal","to see if i was going to choose the smaller based on actual object size vs the size that was shown","no","<p>Correct!</p>","null","","","","","","",""
"","null","html-keyboard-response","60","2.0.0","141894","pt67jxgw74e","smaller","seal","to see if i was going to choose the smaller based on actual object size vs the size that was shown","no","<div style=""font-size:60px;"">+</div>","null","","","","","","",""
"","478","image-keyboard-response","61","2.0.0","142373","pt67jxgw74e","smaller","seal","to see if i was going to choose the smaller based on actual object size vs the size that was shown","no","stimuli/33-Congruent.jpg","m","","","","","right","m","true"
"","null","html-keyboard-response","62","2.0.0","143275","pt67jxgw74e","smaller","seal","to see if i was going to choose the smaller based on actual object size vs the size that was shown","no","<p>Correct!</p>","null","","","","","","",""
"","null","html-keyboard-response","63","2.0.0","144277","pt67jxgw74e","smaller","seal","to see if i was going to choose the smaller based on actual object size vs the size that was shown","no","<div style=""font-size:60px;"">+</div>","null","","","","","","",""
"","533","image-keyboard-response","64","2.0.0","144812","pt67jxgw74e","smaller","seal","to see if i was going to choose the smaller based on actual object size vs the size that was shown","no","stimuli/32-Congruent.jpg","m","","","","","right","m","true"
"","null","html-keyboard-response","65","2.0.0","145714","pt67jxgw74e","smaller","seal","to see if i was going to choose the smaller based on actual object size vs the size that was shown","no","<p>Correct!</p>","null","","","","","","",""
"","null","html-keyboard-response","66","2.0.0","146716","pt67jxgw74e","smaller","seal","to see if i was going to choose the smaller based on actual object size vs the size that was shown","no","<div style=""font-size:60px;"">+</div>","null","","","","","","",""
"","496","image-keyboard-response","67","2.0.0","147214","pt67jxgw74e","smaller","seal","to see if i was going to choose the smaller based on actual object size vs the size that was shown","no","stimuli/13-Congruent.jpg","m","","","","","right","m","true"
"","null","html-keyboard-response","68","2.0.0","148115","pt67jxgw74e","smaller","seal","to see if i was going to choose the smaller based on actual object size vs the size that was shown","no","<p>Correct!</p>","null","","","","","","",""
"","null","html-keyboard-response","69","2.0.0","149118","pt67jxgw74e","smaller","seal","to see if i was going to choose the smaller based on actual object size vs the size that was shown","no","<div style=""font-size:60px;"">+</div>","null","","","","","","",""
"","450","image-keyboard-response","70","2.0.0","149569","pt67jxgw74e","smaller","seal","to see if i was going to choose the smaller based on actual object size vs the size that was shown","no","stimuli/12-Congruent.jpg","m","","","","","right","m","true"
"","null","html-keyboard-response","71","2.0.0","150471","pt67jxgw74e","smaller","seal","to see if i was going to choose the smaller based on actual object size vs the size that was shown","no","<p>Correct!</p>","null","","","","","","",""
"","null","html-keyboard-response","72","2.0.0","151473","pt67jxgw74e","smaller","seal","to see if i was going to choose the smaller based on actual object size vs the size that was shown","no","<div style=""font-size:60px;"">+</div>","null","","","","","","",""
"","506","image-keyboard-response","73","2.0.0","151981","pt67jxgw74e","smaller","seal","to see if i was going to choose the smaller based on actual object size vs the size that was shown","no","stimuli/20-Inongruent.jpg","z","","","","","left","z","true"
"","null","html-keyboard-response","74","2.0.0","152883","pt67jxgw74e","smaller","seal","to see if i was going to choose the smaller based on actual object size vs the size that was shown","no","<p>Correct!</p>","null","","","","","","",""
"","null","html-keyboard-response","75","2.0.0","153886","pt67jxgw74e","smaller","seal","to see if i was going to choose the smaller based on actual object size vs the size that was shown","no","<div style=""font-size:60px;"">+</div>","null","","","","","","",""
"","650","image-keyboard-response","76","2.0.0","154537","pt67jxgw74e","smaller","seal","to see if i was going to choose the smaller based on actual object size vs the size that was shown","no","stimuli/21-Inongruent.jpg","m","","","","","left","z","false"
"","null","html-keyboard-response","77","2.0.0","159538","pt67jxgw74e","smaller","seal","to see if i was going to choose the smaller based on actual object size vs the size that was shown","no","<p>Incorrect.</p><p>Remember to select the <b>smaller</b> image.</p><p>Continuing in 5 seconds...</p>","null","","","","","","",""
"","null","html-keyboard-response","78","2.0.0","160540","pt67jxgw74e","smaller","seal","to see if i was going to choose the smaller based on actual object size vs the size that was shown","no","<div style=""font-size:60px;"">+</div>","null","","","","","","",""
"","673","image-keyboard-response","79","2.0.0","161214","pt67jxgw74e","smaller","seal","to see if i was going to choose the smaller based on actual object size vs the size that was shown","no","stimuli/15-Inongruent.jpg","z","","","","","left","z","true"
"","null","html-keyboard-response","80","2.0.0","162115","pt67jxgw74e","smaller","seal","to see if i was going to choose the smaller based on actual object size vs the size that was shown","no","<p>Correct!</p>","null","","","","","","",""
"","null","html-keyboard-response","81","2.0.0","163118","pt67jxgw74e","smaller","seal","to see if i was going to choose the smaller based on actual object size vs the size that was shown","no","<div style=""font-size:60px;"">+</div>","null","","","","","","",""
"","686","image-keyboard-response","82","2.0.0","163804","pt67jxgw74e","smaller","seal","to see if i was going to choose the smaller based on actual object size vs the size that was shown","no","stimuli/26-Inongruent.jpg","z","","","","","left","z","true"
"","null","html-keyboard-response","83","2.0.0","164707","pt67jxgw74e","smaller","seal","to see if i was going to choose the smaller based on actual object size vs the size that was shown","no","<p>Correct!</p>","null","","","","","","",""
"","null","html-keyboard-response","84","2.0.0","165708","pt67jxgw74e","smaller","seal","to see if i was going to choose the smaller based on actual object size vs the size that was shown","no","<div style=""font-size:60px;"">+</div>","null","","","","","","",""
"","537","image-keyboard-response","85","2.0.0","166246","pt67jxgw74e","smaller","seal","to see if i was going to choose the smaller based on actual object size vs the size that was shown","no","stimuli/3-Congruent.jpg","m","","","","","right","m","true"
"","null","html-keyboard-response","86","2.0.0","167147","pt67jxgw74e","smaller","seal","to see if i was going to choose the smaller based on actual object size vs the size that was shown","no","<p>Correct!</p>","null","","","","","","",""
"","null","html-keyboard-response","87","2.0.0","168149","pt67jxgw74e","smaller","seal","to see if i was going to choose the smaller based on actual object size vs the size that was shown","no","<div style=""font-size:60px;"">+</div>","null","","","","","","",""
"","566","image-keyboard-response","88","2.0.0","168716","pt67jxgw74e","smaller","seal","to see if i was going to choose the smaller based on actual object size vs the size that was shown","no","stimuli/10-Congruent.jpg","m","","","","","right","m","true"
"","null","html-keyboard-response","89","2.0.0","169618","pt67jxgw74e","smaller","seal","to see if i was going to choose the smaller based on actual object size vs the size that was shown","no","<p>Correct!</p>","null","","","","","","",""
"","null","html-keyboard-response","90","2.0.0","170620","pt67jxgw74e","smaller","seal","to see if i was going to choose the smaller based on actual object size vs the size that was shown","no","<div style=""font-size:60px;"">+</div>","null","","","","","","",""
"","892","image-keyboard-response","91","2.0.0","171513","pt67jxgw74e","smaller","seal","to see if i was going to choose the smaller based on actual object size vs the size that was shown","no","stimuli/11-Congruent.jpg","m","","","","","right","m","true"
"","null","html-keyboard-response","92","2.0.0","172416","pt67jxgw74e","smaller","seal","to see if i was going to choose the smaller based on actual object size vs the size that was shown","no","<p>Correct!</p>","null","","","","","","",""
"","null","html-keyboard-response","93","2.0.0","173418","pt67jxgw74e","smaller","seal","to see if i was going to choose the smaller based on actual object size vs the size that was shown","no","<div style=""font-size:60px;"">+</div>","null","","","","","","",""
"","469","image-keyboard-response","94","2.0.0","173888","pt67jxgw74e","smaller","seal","to see if i was going to choose the smaller based on actual object size vs the size that was shown","no","stimuli/8-Inongruent.jpg","z","","","","","left","z","true"
"","null","html-keyboard-response","95","2.0.0","174790","pt67jxgw74e","smaller","seal","to see if i was going to choose the smaller based on actual object size vs the size that was shown","no","<p>Correct!</p>","null","","","","","","",""
"","null","html-keyboard-response","96","2.0.0","175791","pt67jxgw74e","smaller","seal","to see if i was going to choose the smaller based on actual object size vs the size that was shown","no","<div style=""font-size:60px;"">+</div>","null","","","","","","",""
"","604","image-keyboard-response","97","2.0.0","176397","pt67jxgw74e","smaller","seal","to see if i was going to choose the smaller based on actual object size vs the size that was shown","no","stimuli/10-Inongruent.jpg","z","","","","","left","z","true"
"","null","html-keyboard-response","98","2.0.0","177298","pt67jxgw74e","smaller","seal","to see if i was going to choose the smaller based on actual object size vs the size that was shown","no","<p>Correct!</p>","null","","","","","","",""
"","null","html-keyboard-response","99","2.0.0","178301","pt67jxgw74e","smaller","seal","to see if i was going to choose the smaller based on actual object size vs the size that was shown","no","<div style=""font-size:60px;"">+</div>","null","","","","","","",""
"","485","image-keyboard-response","100","2.0.0","178787","pt67jxgw74e","smaller","seal","to see if i was going to choose the smaller based on actual object size vs the size that was shown","no","stimuli/1-Congruent.jpg","m","","","","","right","m","true"
"","null","html-keyboard-response","101","2.0.0","179689","pt67jxgw74e","smaller","seal","to see if i was going to choose the smaller based on actual object size vs the size that was shown","no","<p>Correct!</p>","null","","","","","","",""
"","null","html-keyboard-response","102","2.0.0","180691","pt67jxgw74e","smaller","seal","to see if i was going to choose the smaller based on actual object size vs the size that was shown","no","<div style=""font-size:60px;"">+</div>","null","","","","","","",""
"","493","image-keyboard-response","103","2.0.0","181185","pt67jxgw74e","smaller","seal","to see if i was going to choose the smaller based on actual object size vs the size that was shown","no","stimuli/9-Congruent.jpg","m","","","","","right","m","true"
"","null","html-keyboard-response","104","2.0.0","182087","pt67jxgw74e","smaller","seal","to see if i was going to choose the smaller based on actual object size vs the size that was shown","no","<p>Correct!</p>","null","","","","","","",""
"","null","html-keyboard-response","105","2.0.0","183090","pt67jxgw74e","smaller","seal","to see if i was going to choose the smaller based on actual object size vs the size that was shown","no","<div style=""font-size:60px;"">+</div>","null","","","","","","",""
"","620","image-keyboard-response","106","2.0.0","183711","pt67jxgw74e","smaller","seal","to see if i was going to choose the smaller based on actual object size vs the size that was shown","no","stimuli/11-Congruent.jpg","m","","","","","right","m","true"
"","null","html-keyboard-response","107","2.0.0","184612","pt67jxgw74e","smaller","seal","to see if i was going to choose the smaller based on actual object size vs the size that was shown","no","<p>Correct!</p>","null","","","","","","",""
"","null","html-keyboard-response","108","2.0.0","185614","pt67jxgw74e","smaller","seal","to see if i was going to choose the smaller based on actual object size vs the size that was shown","no","<div style=""font-size:60px;"">+</div>","null","","","","","","",""
"","518","image-keyboard-response","109","2.0.0","186133","pt67jxgw74e","smaller","seal","to see if i was going to choose the smaller based on actual object size vs the size that was shown","no","stimuli/6-Congruent.jpg","m","","","","","right","m","true"
"","null","html-keyboard-response","110","2.0.0","187034","pt67jxgw74e","smaller","seal","to see if i was going to choose the smaller based on actual object size vs the size that was shown","no","<p>Correct!</p>","null","","","","","","",""
"","null","html-keyboard-response","111","2.0.0","188036","pt67jxgw74e","smaller","seal","to see if i was going to choose the smaller based on actual object size vs the size that was shown","no","<div style=""font-size:60px;"">+</div>","null","","","","","","",""
"","575","image-keyboard-response","112","2.0.0","188612","pt67jxgw74e","smaller","seal","to see if i was going to choose the smaller based on actual object size vs the size that was shown","no","stimuli/22-Congruent.jpg","m","","","","","right","m","true"
"","null","html-keyboard-response","113","2.0.0","189514","pt67jxgw74e","smaller","seal","to see if i was going to choose the smaller based on actual object size vs the size that was shown","no","<p>Correct!</p>","null","","","","","","",""
"","null","html-keyboard-response","114","2.0.0","190517","pt67jxgw74e","smaller","seal","to see if i was going to choose the smaller based on actual object size vs the size that was shown","no","<div style=""font-size:60px;"">+</div>","null","","","","","","",""
"","565","image-keyboard-response","115","2.0.0","191083","pt67jxgw74e","smaller","seal","to see if i was going to choose the smaller based on actual object size vs the size that was shown","no","stimuli/7-Congruent.jpg","m","","","","","right","m","true"
"","null","html-keyboard-response","116","2.0.0","191985","pt67jxgw74e","smaller","seal","to see if i was going to choose the smaller based on actual object size vs the size that was shown","no","<p>Correct!</p>","null","","","","","","",""
"","null","html-keyboard-response","117","2.0.0","192986","pt67jxgw74e","smaller","seal","to see if i was going to choose the smaller based on actual object size vs the size that was shown","no","<div style=""font-size:60px;"">+</div>","null","","","","","","",""
"","544","image-keyboard-response","118","2.0.0","193532","pt67jxgw74e","smaller","seal","to see if i was going to choose the smaller based on actual object size vs the size that was shown","no","stimuli/7-Inongruent.jpg","z","","","","","left","z","true"
"","null","html-keyboard-response","119","2.0.0","194433","pt67jxgw74e","smaller","seal","to see if i was going to choose the smaller based on actual object size vs the size that was shown","no","<p>Correct!</p>","null","","","","","","",""
"","null","html-keyboard-response","120","2.0.0","195435","pt67jxgw74e","smaller","seal","to see if i was going to choose the smaller based on actual object size vs the size that was shown","no","<div style=""font-size:60px;"">+</div>","null","","","","","","",""
"","576","image-keyboard-response","121","2.0.0","196013","pt67jxgw74e","smaller","seal","to see if i was going to choose the smaller based on actual object size vs the size that was shown","no","stimuli/26-Inongruent.jpg","z","","","","","left","z","true"
"","null","html-keyboard-response","122","2.0.0","196915","pt67jxgw74e","smaller","seal","to see if i was going to choose the smaller based on actual object size vs the size that was shown","no","<p>Correct!</p>","null","","","","","","",""
"","null","html-keyboard-response","123","2.0.0","197918","pt67jxgw74e","smaller","seal","to see if i was going to choose the smaller based on actual object size vs the size that was shown","no","<div style=""font-size:60px;"">+</div>","null","","","","","","",""
"","560","image-keyboard-response","124","2.0.0","198479","pt67jxgw74e","smaller","seal","to see if i was going to choose the smaller based on actual object size vs the size that was shown","no","stimuli/8-Inongruent.jpg","z","","","","","left","z","true"
"","null","html-keyboard-response","125","2.0.0","199381","pt67jxgw74e","smaller","seal","to see if i was going to choose the smaller based on actual object size vs the size that was shown","no","<p>Correct!</p>","null","","","","","","",""
"","null","html-keyboard-response","126","2.0.0","200383","pt67jxgw74e","smaller","seal","to see if i was going to choose the smaller based on actual object size vs the size that was shown","no","<div style=""font-size:60px;"">+</div>","null","","","","","","",""
"","583","image-keyboard-response","127","2.0.0","200967","pt67jxgw74e","smaller","seal","to see if i was going to choose the smaller based on actual object size vs the size that was shown","no","stimuli/4-Inongruent.jpg","z","","","","","left","z","true"
"","null","html-keyboard-response","128","2.0.0","201870","pt67jxgw74e","smaller","seal","to see if i was going to choose the smaller based on actual object size vs the size that was shown","no","<p>Correct!</p>","null","","","","","","",""
"","null","html-keyboard-response","129","2.0.0","202872","pt67jxgw74e","smaller","seal","to see if i was going to choose the smaller based on actual object size vs the size that was shown","no","<div style=""font-size:60px;"">+</div>","null","","","","","","",""
"","498","image-keyboard-response","130","2.0.0","203371","pt67jxgw74e","smaller","seal","to see if i was going to choose the smaller based on actual object size vs the size that was shown","no","stimuli/1-Congruent.jpg","m","","","","","right","m","true"
"","null","html-keyboard-response","131","2.0.0","204272","pt67jxgw74e","smaller","seal","to see if i was going to choose the smaller based on actual object size vs the size that was shown","no","<p>Correct!</p>","null","","","","","","",""
"","null","html-keyboard-response","132","2.0.0","205275","pt67jxgw74e","smaller","seal","to see if i was going to choose the smaller based on actual object size vs the size that was shown","no","<div style=""font-size:60px;"">+</div>","null","","","","","","",""
"","576","image-keyboard-response","133","2.0.0","205852","pt67jxgw74e","smaller","seal","to see if i was going to choose the smaller based on actual object size vs the size that was shown","no","stimuli/29-Inongruent.jpg","z","","","","","left","z","true"
"","null","html-keyboard-response","134","2.0.0","206755","pt67jxgw74e","smaller","seal","to see if i was going to choose the smaller based on actual object size vs the size that was shown","no","<p>Correct!</p>","null","","","","","","",""
"","null","html-keyboard-response","135","2.0.0","207757","pt67jxgw74e","smaller","seal","to see if i was going to choose the smaller based on actual object size vs the size that was shown","no","<div style=""font-size:60px;"">+</div>","null","","","","","","",""
"","531","image-keyboard-response","136","2.0.0","208289","pt67jxgw74e","smaller","seal","to see if i was going to choose the smaller based on actual object size vs the size that was shown","no","stimuli/6-Inongruent.jpg","z","","","","","left","z","true"
"","null","html-keyboard-response","137","2.0.0","209190","pt67jxgw74e","smaller","seal","to see if i was going to choose the smaller based on actual object size vs the size that was shown","no","<p>Correct!</p>","null","","","","","","",""
"","null","html-keyboard-response","138","2.0.0","210192","pt67jxgw74e","smaller","seal","to see if i was going to choose the smaller based on actual object size vs the size that was shown","no","<div style=""font-size:60px;"">+</div>","null","","","","","","",""
"","615","image-keyboard-response","139","2.0.0","210808","pt67jxgw74e","smaller","seal","to see if i was going to choose the smaller based on actual object size vs the size that was shown","no","stimuli/17-Congruent.jpg","m","","","","","right","m","true"
"","null","html-keyboard-response","140","2.0.0","211710","pt67jxgw74e","smaller","seal","to see if i was going to choose the smaller based on actual object size vs the size that was shown","no","<p>Correct!</p>","null","","","","","","",""
"","null","html-keyboard-response","141","2.0.0","212712","pt67jxgw74e","smaller","seal","to see if i was going to choose the smaller based on actual object size vs the size that was shown","no","<div style=""font-size:60px;"">+</div>","null","","","","","","",""
"","503","image-keyboard-response","142","2.0.0","213217","pt67jxgw74e","smaller","seal","to see if i was going to choose the smaller based on actual object size vs the size that was shown","no","stimuli/25-Inongruent.jpg","z","","","","","left","z","true"
"","null","html-keyboard-response","143","2.0.0","214119","pt67jxgw74e","smaller","seal","to see if i was going to choose the smaller based on actual object size vs the size that was shown","no","<p>Correct!</p>","null","","","","","","",""
"","null","html-keyboard-response","144","2.0.0","215122","pt67jxgw74e","smaller","seal","to see if i was going to choose the smaller based on actual object size vs the size that was shown","no","<div style=""font-size:60px;"">+</div>","null","","","","","","",""
"","510","image-keyboard-response","145","2.0.0","215633","pt67jxgw74e","smaller","seal","to see if i was going to choose the smaller based on actual object size vs the size that was shown","no","stimuli/19-Inongruent.jpg","z","","","","","left","z","true"
"","null","html-keyboard-response","146","2.0.0","216535","pt67jxgw74e","smaller","seal","to see if i was going to choose the smaller based on actual object size vs the size that was shown","no","<p>Correct!</p>","null","","","","","","",""
"","null","html-keyboard-response","147","2.0.0","217537","pt67jxgw74e","smaller","seal","to see if i was going to choose the smaller based on actual object size vs the size that was shown","no","<div style=""font-size:60px;"">+</div>","null","","","","","","",""
"","581","image-keyboard-response","148","2.0.0","218118","pt67jxgw74e","smaller","seal","to see if i was going to choose the smaller based on actual object size vs the size that was shown","no","stimuli/30-Inongruent.jpg","z","","","","","left","z","true"
"","null","html-keyboard-response","149","2.0.0","219019","pt67jxgw74e","smaller","seal","to see if i was going to choose the smaller based on actual object size vs the size that was shown","no","<p>Correct!</p>","null","","","","","","",""
"","null","html-keyboard-response","150","2.0.0","220021","pt67jxgw74e","smaller","seal","to see if i was going to choose the smaller based on actual object size vs the size that was shown","no","<div style=""font-size:60px;"">+</div>","null","","","","","","",""
"","501","image-keyboard-response","151","2.0.0","220524","pt67jxgw74e","smaller","seal","to see if i was going to choose the smaller based on actual object size vs the size that was shown","no","stimuli/28-Congruent.jpg","m","","","","","right","m","true"
"","null","html-keyboard-response","152","2.0.0","221425","pt67jxgw74e","smaller","seal","to see if i was going to choose the smaller based on actual object size vs the size that was shown","no","<p>Correct!</p>","null","","","","","","",""
"","null","html-keyboard-response","153","2.0.0","222428","pt67jxgw74e","smaller","seal","to see if i was going to choose the smaller based on actual object size vs the size that was shown","no","<div style=""font-size:60px;"">+</div>","null","","","","","","",""
"","464","image-keyboard-response","154","2.0.0","222893","pt67jxgw74e","smaller","seal","to see if i was going to choose the smaller based on actual object size vs the size that was shown","no","stimuli/3-Congruent.jpg","m","","","","","right","m","true"
"","null","html-keyboard-response","155","2.0.0","223795","pt67jxgw74e","smaller","seal","to see if i was going to choose the smaller based on actual object size vs the size that was shown","no","<p>Correct!</p>","null","","","","","","",""
"","null","html-keyboard-response","156","2.0.0","224797","pt67jxgw74e","smaller","seal","to see if i was going to choose the smaller based on actual object size vs the size that was shown","no","<div style=""font-size:60px;"">+</div>","null","","","","","","",""
"","597","image-keyboard-response","157","2.0.0","225396","pt67jxgw74e","smaller","seal","to see if i was going to choose the smaller based on actual object size vs the size that was shown","no","stimuli/17-Congruent.jpg","m","","","","","right","m","true"
"","null","html-keyboard-response","158","2.0.0","226298","pt67jxgw74e","smaller","seal","to see if i was going to choose the smaller based on actual object size vs the size that was shown","no","<p>Correct!</p>","null","","","","","","",""
"","null","html-keyboard-response","159","2.0.0","227298","pt67jxgw74e","smaller","seal","to see if i was going to choose the smaller based on actual object size vs the size that was shown","no","<div style=""font-size:60px;"">+</div>","null","","","","","","",""
"","479","image-keyboard-response","160","2.0.0","227778","pt67jxgw74e","smaller","seal","to see if i was going to choose the smaller based on actual object size vs the size that was shown","no","stimuli/10-Congruent.jpg","m","","","","","right","m","true"
"","null","html-keyboard-response","161","2.0.0","228680","pt67jxgw74e","smaller","seal","to see if i was going to choose the smaller based on actual object size vs the size that was shown","no","<p>Correct!</p>","null","","","","","","",""
"","null","html-keyboard-response","162","2.0.0","229682","pt67jxgw74e","smaller","seal","to see if i was going to choose the smaller based on actual object size vs the size that was shown","no","<div style=""font-size:60px;"">+</div>","null","","","","","","",""
"","622","image-keyboard-response","163","2.0.0","230305","pt67jxgw74e","smaller","seal","to see if i was going to choose the smaller based on actual object size vs the size that was shown","no","stimuli/32-Congruent.jpg","m","","","","","right","m","true"
"","null","html-keyboard-response","164","2.0.0","231207","pt67jxgw74e","smaller","seal","to see if i was going to choose the smaller based on actual object size vs the size that was shown","no","<p>Correct!</p>","null","","","","","","",""
"","null","html-keyboard-response","165","2.0.0","232209","pt67jxgw74e","smaller","seal","to see if i was going to choose the smaller based on actual object size vs the size that was shown","no","<div style=""font-size:60px;"">+</div>","null","","","","","","",""
"","494","image-keyboard-response","166","2.0.0","232704","pt67jxgw74e","smaller","seal","to see if i was going to choose the smaller based on actual object size vs the size that was shown","no","stimuli/24-Inongruent.jpg","z","","","","","left","z","true"
"","null","html-keyboard-response","167","2.0.0","233606","pt67jxgw74e","smaller","seal","to see if i was going to choose the smaller based on actual object size vs the size that was shown","no","<p>Correct!</p>","null","","","","","","",""
"","null","html-keyboard-response","168","2.0.0","234608","pt67jxgw74e","smaller","seal","to see if i was going to choose the smaller based on actual object size vs the size that was shown","no","<div style=""font-size:60px;"">+</div>","null","","","","","","",""
"","447","image-keyboard-response","169","2.0.0","235056","pt67jxgw74e","smaller","seal","to see if i was going to choose the smaller based on actual object size vs the size that was shown","no","stimuli/28-Inongruent.jpg","z","","","","","left","z","true"
"","null","html-keyboard-response","170","2.0.0","235958","pt67jxgw74e","smaller","seal","to see if i was going to choose the smaller based on actual object size vs the size that was shown","no","<p>Correct!</p>","null","","","","","","",""
"","null","html-keyboard-response","171","2.0.0","236961","pt67jxgw74e","smaller","seal","to see if i was going to choose the smaller based on actual object size vs the size that was shown","no","<div style=""font-size:60px;"">+</div>","null","","","","","","",""
"","607","image-keyboard-response","172","2.0.0","237569","pt67jxgw74e","smaller","seal","to see if i was going to choose the smaller based on actual object size vs the size that was shown","no","stimuli/7-Inongruent.jpg","z","","","","","left","z","true"
"","null","html-keyboard-response","173","2.0.0","238471","pt67jxgw74e","smaller","seal","to see if i was going to choose the smaller based on actual object size vs the size that was shown","no","<p>Correct!</p>","null","","","","","","",""
"","null","html-keyboard-response","174","2.0.0","239474","pt67jxgw74e","smaller","seal","to see if i was going to choose the smaller based on actual object size vs the size that was shown","no","<div style=""font-size:60px;"">+</div>","null","","","","","","",""
"","604","image-keyboard-response","175","2.0.0","240079","pt67jxgw74e","smaller","seal","to see if i was going to choose the smaller based on actual object size vs the size that was shown","no","stimuli/17-Inongruent.jpg","z","","","","","left","z","true"
"","null","html-keyboard-response","176","2.0.0","240981","pt67jxgw74e","smaller","seal","to see if i was going to choose the smaller based on actual object size vs the size that was shown","no","<p>Correct!</p>","null","","","","","","",""
"","null","html-keyboard-response","177","2.0.0","241983","pt67jxgw74e","smaller","seal","to see if i was going to choose the smaller based on actual object size vs the size that was shown","no","<div style=""font-size:60px;"">+</div>","null","","","","","","",""
"","576","image-keyboard-response","178","2.0.0","242560","pt67jxgw74e","smaller","seal","to see if i was going to choose the smaller based on actual object size vs the size that was shown","no","stimuli/9-Inongruent.jpg","z","","","","","left","z","true"
"","null","html-keyboard-response","179","2.0.0","243462","pt67jxgw74e","smaller","seal","to see if i was going to choose the smaller based on actual object size vs the size that was shown","no","<p>Correct!</p>","null","","","","","","",""
"","null","html-keyboard-response","180","2.0.0","244463","pt67jxgw74e","smaller","seal","to see if i was going to choose the smaller based on actual object size vs the size that was shown","no","<div style=""font-size:60px;"">+</div>","null","","","","","","",""
"","473","image-keyboard-response","181","2.0.0","244937","pt67jxgw74e","smaller","seal","to see if i was going to choose the smaller based on actual object size vs the size that was shown","no","stimuli/18-Inongruent.jpg","z","","","","","left","z","true"
"","null","html-keyboard-response","182","2.0.0","245839","pt67jxgw74e","smaller","seal","to see if i was going to choose the smaller based on actual object size vs the size that was shown","no","<p>Correct!</p>","null","","","","","","",""
"","null","html-keyboard-response","183","2.0.0","246840","pt67jxgw74e","smaller","seal","to see if i was going to choose the smaller based on actual object size vs the size that was shown","no","<div style=""font-size:60px;"">+</div>","null","","","","","","",""
"","552","image-keyboard-response","184","2.0.0","247392","pt67jxgw74e","smaller","seal","to see if i was going to choose the smaller based on actual object size vs the size that was shown","no","stimuli/22-Inongruent.jpg","z","","","","","left","z","true"
"","null","html-keyboard-response","185","2.0.0","248294","pt67jxgw74e","smaller","seal","to see if i was going to choose the smaller based on actual object size vs the size that was shown","no","<p>Correct!</p>","null","","","","","","",""
"","null","html-keyboard-response","186","2.0.0","249297","pt67jxgw74e","smaller","seal","to see if i was going to choose the smaller based on actual object size vs the size that was shown","no","<div style=""font-size:60px;"">+</div>","null","","","","","","",""
"","504","image-keyboard-response","187","2.0.0","249801","pt67jxgw74e","smaller","seal","to see if i was going to choose the smaller based on actual object size vs the size that was shown","no","stimuli/36-Inongruent.jpg","z","","","","","left","z","true"
"","null","html-keyboard-response","188","2.0.0","250703","pt67jxgw74e","smaller","seal","to see if i was going to choose the smaller based on actual object size vs the size that was shown","no","<p>Correct!</p>","null","","","","","","",""
"","null","html-keyboard-response","189","2.0.0","251705","pt67jxgw74e","smaller","seal","to see if i was going to choose the smaller based on actual object size vs the size that was shown","no","<div style=""font-size:60px;"">+</div>","null","","","","","","",""
"","441","image-keyboard-response","190","2.0.0","252147","pt67jxgw74e","smaller","seal","to see if i was going to choose the smaller based on actual object size vs the size that was shown","no","stimuli/11-Inongruent.jpg","z","","","","","left","z","true"
"","null","html-keyboard-response","191","2.0.0","253049","pt67jxgw74e","smaller","seal","to see if i was going to choose the smaller based on actual object size vs the size that was shown","no","<p>Correct!</p>","null","","","","","","",""
"","null","html-keyboard-response","192","2.0.0","254051","pt67jxgw74e","smaller","seal","to see if i was going to choose the smaller based on actual object size vs the size that was shown","no","<div style=""font-size:60px;"">+</div>","null","","","","","","",""
"","786","image-keyboard-response","193","2.0.0","254838","pt67jxgw74e","smaller","seal","to see if i was going to choose the smaller based on actual object size vs the size that was shown","no","stimuli/4-Congruent.jpg","m","","","","","right","m","true"
"","null","html-keyboard-response","194","2.0.0","255741","pt67jxgw74e","smaller","seal","to see if i was going to choose the smaller based on actual object size vs the size that was shown","no","<p>Correct!</p>","null","","","","","","",""
"","null","html-keyboard-response","195","2.0.0","256743","pt67jxgw74e","smaller","seal","to see if i was going to choose the smaller based on actual object size vs the size that was shown","no","<div style=""font-size:60px;"">+</div>","null","","","","","","",""
"","484","image-keyboard-response","196","2.0.0","257228","pt67jxgw74e","smaller","seal","to see if i was going to choose the smaller based on actual object size vs the size that was shown","no","stimuli/35-Congruent.jpg","m","","","","","right","m","true"
"","null","html-keyboard-response","197","2.0.0","258130","pt67jxgw74e","smaller","seal","to see if i was going to choose the smaller based on actual object size vs the size that was shown","no","<p>Correct!</p>","null","","","","","","",""
"","null","html-keyboard-response","198","2.0.0","259132","pt67jxgw74e","smaller","seal","to see if i was going to choose the smaller based on actual object size vs the size that was shown","no","<div style=""font-size:60px;"">+</div>","null","","","","","","",""
"","733","image-keyboard-response","199","2.0.0","259866","pt67jxgw74e","smaller","seal","to see if i was going to choose the smaller based on actual object size vs the size that was shown","no","stimuli/21-Inongruent.jpg","z","","","","","left","z","true"
"","null","html-keyboard-response","200","2.0.0","260767","pt67jxgw74e","smaller","seal","to see if i was going to choose the smaller based on actual object size vs the size that was shown","no","<p>Correct!</p>","null","","","","","","",""
"","null","html-keyboard-response","201","2.0.0","261770","pt67jxgw74e","smaller","seal","to see if i was going to choose the smaller based on actual object size vs the size that was shown","no","<div style=""font-size:60px;"">+</div>","null","","","","","","",""
"","507","image-keyboard-response","202","2.0.0","262277","pt67jxgw74e","smaller","seal","to see if i was going to choose the smaller based on actual object size vs the size that was shown","no","stimuli/26-Congruent.jpg","m","","","","","right","m","true"
"","null","html-keyboard-response","203","2.0.0","263180","pt67jxgw74e","smaller","seal","to see if i was going to choose the smaller based on actual object size vs the size that was shown","no","<p>Correct!</p>","null","","","","","","",""
"","null","html-keyboard-response","204","2.0.0","264182","pt67jxgw74e","smaller","seal","to see if i was going to choose the smaller based on actual object size vs the size that was shown","no","<div style=""font-size:60px;"">+</div>","null","","","","","","",""
"","545","image-keyboard-response","205","2.0.0","264728","pt67jxgw74e","smaller","seal","to see if i was going to choose the smaller based on actual object size vs the size that was shown","no","stimuli/29-Congruent.jpg","m","","","","","right","m","true"
"","null","html-keyboard-response","206","2.0.0","265630","pt67jxgw74e","smaller","seal","to see if i was going to choose the smaller based on actual object size vs the size that was shown","no","<p>Correct!</p>","null","","","","","","",""
"","null","html-keyboard-response","207","2.0.0","266632","pt67jxgw74e","smaller","seal","to see if i was going to choose the smaller based on actual object size vs the size that was shown","no","<div style=""font-size:60px;"">+</div>","null","","","","","","",""
"","501","image-keyboard-response","208","2.0.0","267134","pt67jxgw74e","smaller","seal","to see if i was going to choose the smaller based on actual object size vs the size that was shown","no","stimuli/22-Congruent.jpg","m","","","","","right","m","true"
"","null","html-keyboard-response","209","2.0.0","268036","pt67jxgw74e","smaller","seal","to see if i was going to choose the smaller based on actual object size vs the size that was shown","no","<p>Correct!</p>","null","","","","","","",""
"","null","html-keyboard-response","210","2.0.0","269039","pt67jxgw74e","smaller","seal","to see if i was going to choose the smaller based on actual object size vs the size that was shown","no","<div style=""font-size:60px;"">+</div>","null","","","","","","",""
"","505","image-keyboard-response","211","2.0.0","269545","pt67jxgw74e","smaller","seal","to see if i was going to choose the smaller based on actual object size vs the size that was shown","no","stimuli/20-Inongruent.jpg","z","","","","","left","z","true"
"","null","html-keyboard-response","212","2.0.0","270447","pt67jxgw74e","smaller","seal","to see if i was going to choose the smaller based on actual object size vs the size that was shown","no","<p>Correct!</p>","null","","","","","","",""
"","null","html-keyboard-response","213","2.0.0","271449","pt67jxgw74e","smaller","seal","to see if i was going to choose the smaller based on actual object size vs the size that was shown","no","<div style=""font-size:60px;"">+</div>","null","","","","","","",""
"","509","image-keyboard-response","214","2.0.0","271958","pt67jxgw74e","smaller","seal","to see if i was going to choose the smaller based on actual object size vs the size that was shown","no","stimuli/28-Congruent.jpg","m","","","","","right","m","true"
"","null","html-keyboard-response","215","2.0.0","272860","pt67jxgw74e","smaller","seal","to see if i was going to choose the smaller based on actual object size vs the size that was shown","no","<p>Correct!</p>","null","","","","","","",""
"","null","html-keyboard-response","216","2.0.0","273863","pt67jxgw74e","smaller","seal","to see if i was going to choose the smaller based on actual object size vs the size that was shown","no","<div style=""font-size:60px;"">+</div>","null","","","","","","",""
"","498","image-keyboard-response","217","2.0.0","274362","pt67jxgw74e","smaller","seal","to see if i was going to choose the smaller based on actual object size vs the size that was shown","no","stimuli/25-Congruent.jpg","m","","","","","right","m","true"
"","null","html-keyboard-response","218","2.0.0","275263","pt67jxgw74e","smaller","seal","to see if i was going to choose the smaller based on actual object size vs the size that was shown","no","<p>Correct!</p>","null","","","","","","",""
"","null","html-keyboard-response","219","2.0.0","276265","pt67jxgw74e","smaller","seal","to see if i was going to choose the smaller based on actual object size vs the size that was shown","no","<div style=""font-size:60px;"">+</div>","null","","","","","","",""
"","699","image-keyboard-response","220","2.0.0","276965","pt67jxgw74e","smaller","seal","to see if i was going to choose the smaller based on actual object size vs the size that was shown","no","stimuli/19-Congruent.jpg","m","","","","","right","m","true"
"","null","html-keyboard-response","221","2.0.0","277867","pt67jxgw74e","smaller","seal","to see if i was going to choose the smaller based on actual object size vs the size that was shown","no","<p>Correct!</p>","null","","","","","","",""
"","null","html-keyboard-response","222","2.0.0","278869","pt67jxgw74e","smaller","seal","to see if i was going to choose the smaller based on actual object size vs the size that was shown","no","<div style=""font-size:60px;"">+</div>","null","","","","","","",""
"","523","image-keyboard-response","223","2.0.0","279393","pt67jxgw74e","smaller","seal","to see if i was going to choose the smaller based on actual object size vs the size that was shown","no","stimuli/18-Congruent.jpg","m","","","","","right","m","true"
"","null","html-keyboard-response","224","2.0.0","280295","pt67jxgw74e","smaller","seal","to see if i was going to choose the smaller based on actual object size vs the size that was shown","no","<p>Correct!</p>","null","","","","","","",""
"","null","html-keyboard-response","225","2.0.0","281296","pt67jxgw74e","smaller","seal","to see if i was going to choose the smaller based on actual object size vs the size that was shown","no","<div style=""font-size:60px;"">+</div>","null","","","","","","",""
"","580","image-keyboard-response","226","2.0.0","281877","pt67jxgw74e","smaller","seal","to see if i was going to choose the smaller based on actual object size vs the size that was shown","no","stimuli/8-Congruent.jpg","m","","","","","right","m","true"
"","null","html-keyboard-response","227","2.0.0","282779","pt67jxgw74e","smaller","seal","to see if i was going to choose the smaller based on actual object size vs the size that was shown","no","<p>Correct!</p>","null","","","","","","",""
"","null","html-keyboard-response","228","2.0.0","283781","pt67jxgw74e","smaller","seal","to see if i was going to choose the smaller based on actual object size vs the size that was shown","no","<div style=""font-size:60px;"">+</div>","null","","","","","","",""
"","418","image-keyboard-response","229","2.0.0","284201","pt67jxgw74e","smaller","seal","to see if i was going to choose the smaller based on actual object size vs the size that was shown","no","stimuli/14-Inongruent.jpg","z","","","","","left","z","true"
"","null","html-keyboard-response","230","2.0.0","285103","pt67jxgw74e","smaller","seal","to see if i was going to choose the smaller based on actual object size vs the size that was shown","no","<p>Correct!</p>","null","","","","","","",""
"","null","html-keyboard-response","231","2.0.0","286106","pt67jxgw74e","smaller","seal","to see if i was going to choose the smaller based on actual object size vs the size that was shown","no","<div style=""font-size:60px;"">+</div>","null","","","","","","",""
"","481","image-keyboard-response","232","2.0.0","286587","pt67jxgw74e","smaller","seal","to see if i was going to choose the smaller based on actual object size vs the size that was shown","no","stimuli/36-Congruent.jpg","m","","","","","right","m","true"
"","null","html-keyboard-response","233","2.0.0","287489","pt67jxgw74e","smaller","seal","to see if i was going to choose the smaller based on actual object size vs the size that was shown","no","<p>Correct!</p>","null","","","","","","",""
"","null","html-keyboard-response","234","2.0.0","288491","pt67jxgw74e","smaller","seal","to see if i was going to choose the smaller based on actual object size vs the size that was shown","no","<div style=""font-size:60px;"">+</div>","null","","","","","","",""
"","490","image-keyboard-response","235","2.0.0","288982","pt67jxgw74e","smaller","seal","to see if i was going to choose the smaller based on actual object size vs the size that was shown","no","stimuli/12-Inongruent.jpg","z","","","","","left","z","true"
"","null","html-keyboard-response","236","2.0.0","289885","pt67jxgw74e","smaller","seal","to see if i was going to choose the smaller based on actual object size vs the size that was shown","no","<p>Correct!</p>","null","","","","","","",""
"","null","html-keyboard-response","237","2.0.0","290886","pt67jxgw74e","smaller","seal","to see if i was going to choose the smaller based on actual object size vs the size that was shown","no","<div style=""font-size:60px;"">+</div>","null","","","","","","",""
"","501","image-keyboard-response","238","2.0.0","291389","pt67jxgw74e","smaller","seal","to see if i was going to choose the smaller based on actual object size vs the size that was shown","no","stimuli/31-Congruent.jpg","m","","","","","right","m","true"
"","null","html-keyboard-response","239","2.0.0","292291","pt67jxgw74e","smaller","seal","to see if i was going to choose the smaller based on actual object size vs the size that was shown","no","<p>Correct!</p>","null","","","","","","",""
"","null","html-keyboard-response","240","2.0.0","293293","pt67jxgw74e","smaller","seal","to see if i was going to choose the smaller based on actual object size vs the size that was shown","no","<div style=""font-size:60px;"">+</div>","null","","","","","","",""
"","436","image-keyboard-response","241","2.0.0","293730","pt67jxgw74e","smaller","seal","to see if i was going to choose the smaller based on actual object size vs the size that was shown","no","stimuli/23-Inongruent.jpg","z","","","","","left","z","true"
"","null","html-keyboard-response","242","2.0.0","294632","pt67jxgw74e","smaller","seal","to see if i was going to choose the smaller based on actual object size vs the size that was shown","no","<p>Correct!</p>","null","","","","","","",""
"","null","html-keyboard-response","243","2.0.0","295635","pt67jxgw74e","smaller","seal","to see if i was going to choose the smaller based on actual object size vs the size that was shown","no","<div style=""font-size:60px;"">+</div>","null","","","","","","",""
"","636","image-keyboard-response","244","2.0.0","296271","pt67jxgw74e","smaller","seal","to see if i was going to choose the smaller based on actual object size vs the size that was shown","no","stimuli/15-Inongruent.jpg","z","","","","","left","z","true"
"","null","html-keyboard-response","245","2.0.0","297173","pt67jxgw74e","smaller","seal","to see if i was going to choose the smaller based on actual object size vs the size that was shown","no","<p>Correct!</p>","null","","","","","","",""
"","null","html-keyboard-response","246","2.0.0","298175","pt67jxgw74e","smaller","seal","to see if i was going to choose the smaller based on actual object size vs the size that was shown","no","<div style=""font-size:60px;"">+</div>","null","","","","","","",""
"","546","image-keyboard-response","247","2.0.0","298723","pt67jxgw74e","smaller","seal","to see if i was going to choose the smaller based on actual object size vs the size that was shown","no","stimuli/26-Congruent.jpg","m","","","","","right","m","true"
"","null","html-keyboard-response","248","2.0.0","299624","pt67jxgw74e","smaller","seal","to see if i was going to choose the smaller based on actual object size vs the size that was shown","no","<p>Correct!</p>","null","","","","","","",""
"","null","html-keyboard-response","249","2.0.0","300626","pt67jxgw74e","smaller","seal","to see if i was going to choose the smaller based on actual object size vs the size that was shown","no","<div style=""font-size:60px;"">+</div>","null","","","","","","",""
"","652","image-keyboard-response","250","2.0.0","301280","pt67jxgw74e","smaller","seal","to see if i was going to choose the smaller based on actual object size vs the size that was shown","no","stimuli/27-Congruent.jpg","m","","","","","right","m","true"
"","null","html-keyboard-response","251","2.0.0","302181","pt67jxgw74e","smaller","seal","to see if i was going to choose the smaller based on actual object size vs the size that was shown","no","<p>Correct!</p>","null","","","","","","",""
"","null","html-keyboard-response","252","2.0.0","303183","pt67jxgw74e","smaller","seal","to see if i was going to choose the smaller based on actual object size vs the size that was shown","no","<div style=""font-size:60px;"">+</div>","null","","","","","","",""
"","467","image-keyboard-response","253","2.0.0","303652","pt67jxgw74e","smaller","seal","to see if i was going to choose the smaller based on actual object size vs the size that was shown","no","stimuli/2-Inongruent.jpg","z","","","","","left","z","true"
"","null","html-keyboard-response","254","2.0.0","304554","pt67jxgw74e","smaller","seal","to see if i was going to choose the smaller based on actual object size vs the size that was shown","no","<p>Correct!</p>","null","","","","","","",""
"","null","html-keyboard-response","255","2.0.0","305557","pt67jxgw74e","smaller","seal","to see if i was going to choose the smaller based on actual object size vs the size that was shown","no","<div style=""font-size:60px;"">+</div>","null","","","","","","",""
"","481","image-keyboard-response","256","2.0.0","306038","pt67jxgw74e","smaller","seal","to see if i was going to choose the smaller based on actual object size vs the size that was shown","no","stimuli/29-Inongruent.jpg","z","","","","","left","z","true"
"","null","html-keyboard-response","257","2.0.0","306940","pt67jxgw74e","smaller","seal","to see if i was going to choose the smaller based on actual object size vs the size that was shown","no","<p>Correct!</p>","null","","","","","","",""
"","null","html-keyboard-response","258","2.0.0","307942","pt67jxgw74e","smaller","seal","to see if i was going to choose the smaller based on actual object size vs the size that was shown","no","<div style=""font-size:60px;"">+</div>","null","","","","","","",""
"","471","image-keyboard-response","259","2.0.0","308414","pt67jxgw74e","smaller","seal","to see if i was going to choose the smaller based on actual object size vs the size that was shown","no","stimuli/14-Inongruent.jpg","z","","","","","left","z","true"
"","null","html-keyboard-response","260","2.0.0","309315","pt67jxgw74e","smaller","seal","to see if i was going to choose the smaller based on actual object size vs the size that was shown","no","<p>Correct!</p>","null","","","","","","",""
"","null","html-keyboard-response","261","2.0.0","310317","pt67jxgw74e","smaller","seal","to see if i was going to choose the smaller based on actual object size vs the size that was shown","no","<div style=""font-size:60px;"">+</div>","null","","","","","","",""
"","496","image-keyboard-response","262","2.0.0","310815","pt67jxgw74e","smaller","seal","to see if i was going to choose the smaller based on actual object size vs the size that was shown","no","stimuli/9-Congruent.jpg","m","","","","","right","m","true"
"","null","html-keyboard-response","263","2.0.0","311716","pt67jxgw74e","smaller","seal","to see if i was going to choose the smaller based on actual object size vs the size that was shown","no","<p>Correct!</p>","null","","","","","","",""
"","null","html-keyboard-response","264","2.0.0","312718","pt67jxgw74e","smaller","seal","to see if i was going to choose the smaller based on actual object size vs the size that was shown","no","<div style=""font-size:60px;"">+</div>","null","","","","","","",""
"","513","image-keyboard-response","265","2.0.0","313232","pt67jxgw74e","smaller","seal","to see if i was going to choose the smaller based on actual object size vs the size that was shown","no","stimuli/35-Inongruent.jpg","z","","","","","left","z","true"
"","null","html-keyboard-response","266","2.0.0","314134","pt67jxgw74e","smaller","seal","to see if i was going to choose the smaller based on actual object size vs the size that was shown","no","<p>Correct!</p>","null","","","","","","",""
"","null","html-keyboard-response","267","2.0.0","315136","pt67jxgw74e","smaller","seal","to see if i was going to choose the smaller based on actual object size vs the size that was shown","no","<div style=""font-size:60px;"">+</div>","null","","","","","","",""
"","548","image-keyboard-response","268","2.0.0","315685","pt67jxgw74e","smaller","seal","to see if i was going to choose the smaller based on actual object size vs the size that was shown","no","stimuli/8-Congruent.jpg","m","","","","","right","m","true"
"","null","html-keyboard-response","269","2.0.0","316586","pt67jxgw74e","smaller","seal","to see if i was going to choose the smaller based on actual object size vs the size that was shown","no","<p>Correct!</p>","null","","","","","","",""
"","null","html-keyboard-response","270","2.0.0","317589","pt67jxgw74e","smaller","seal","to see if i was going to choose the smaller based on actual object size vs the size that was shown","no","<div style=""font-size:60px;"">+</div>","null","","","","","","",""
"","524","image-keyboard-response","271","2.0.0","318114","pt67jxgw74e","smaller","seal","to see if i was going to choose the smaller based on actual object size vs the size that was shown","no","stimuli/23-Congruent.jpg","m","","","","","right","m","true"
"","null","html-keyboard-response","272","2.0.0","319015","pt67jxgw74e","smaller","seal","to see if i was going to choose the smaller based on actual object size vs the size that was shown","no","<p>Correct!</p>","null","","","","","","",""
"","null","html-keyboard-response","273","2.0.0","320017","pt67jxgw74e","smaller","seal","to see if i was going to choose the smaller based on actual object size vs the size that was shown","no","<div style=""font-size:60px;"">+</div>","null","","","","","","",""
"","441","image-keyboard-response","274","2.0.0","320458","pt67jxgw74e","smaller","seal","to see if i was going to choose the smaller based on actual object size vs the size that was shown","no","stimuli/4-Inongruent.jpg","z","","","","","left","z","true"
"","null","html-keyboard-response","275","2.0.0","321360","pt67jxgw74e","smaller","seal","to see if i was going to choose the smaller based on actual object size vs the size that was shown","no","<p>Correct!</p>","null","","","","","","",""
"","null","html-keyboard-response","276","2.0.0","322362","pt67jxgw74e","smaller","seal","to see if i was going to choose the smaller based on actual object size vs the size that was shown","no","<div style=""font-size:60px;"">+</div>","null","","","","","","",""
"","478","image-keyboard-response","277","2.0.0","322841","pt67jxgw74e","smaller","seal","to see if i was going to choose the smaller based on actual object size vs the size that was shown","no","stimuli/27-Inongruent.jpg","z","","","","","left","z","true"
"","null","html-keyboard-response","278","2.0.0","323743","pt67jxgw74e","smaller","seal","to see if i was going to choose the smaller based on actual object size vs the size that was shown","no","<p>Correct!</p>","null","","","","","","",""
"","null","html-keyboard-response","279","2.0.0","324744","pt67jxgw74e","smaller","seal","to see if i was going to choose the smaller based on actual object size vs the size that was shown","no","<div style=""font-size:60px;"">+</div>","null","","","","","","",""
"","468","image-keyboard-response","280","2.0.0","325213","pt67jxgw74e","smaller","seal","to see if i was going to choose the smaller based on actual object size vs the size that was shown","no","stimuli/9-Inongruent.jpg","z","","","","","left","z","true"
"","null","html-keyboard-response","281","2.0.0","326115","pt67jxgw74e","smaller","seal","to see if i was going to choose the smaller based on actual object size vs the size that was shown","no","<p>Correct!</p>","null","","","","","","",""
"","null","html-keyboard-response","282","2.0.0","327117","pt67jxgw74e","smaller","seal","to see if i was going to choose the smaller based on actual object size vs the size that was shown","no","<div style=""font-size:60px;"">+</div>","null","","","","","","",""
"","508","image-keyboard-response","283","2.0.0","327626","pt67jxgw74e","smaller","seal","to see if i was going to choose the smaller based on actual object size vs the size that was shown","no","stimuli/7-Congruent.jpg","m","","","","","right","m","true"
"","null","html-keyboard-response","284","2.0.0","328528","pt67jxgw74e","smaller","seal","to see if i was going to choose the smaller based on actual object size vs the size that was shown","no","<p>Correct!</p>","null","","","","","","",""
"","null","html-keyboard-response","285","2.0.0","329531","pt67jxgw74e","smaller","seal","to see if i was going to choose the smaller based on actual object size vs the size that was shown","no","<div style=""font-size:60px;"">+</div>","null","","","","","","",""
"","435","image-keyboard-response","286","2.0.0","329966","pt67jxgw74e","smaller","seal","to see if i was going to choose the smaller based on actual object size vs the size that was shown","no","stimuli/2-Congruent.jpg","m","","","","","right","m","true"
"","null","html-keyboard-response","287","2.0.0","330867","pt67jxgw74e","smaller","seal","to see if i was going to choose the smaller based on actual object size vs the size that was shown","no","<p>Correct!</p>","null","","","","","","",""
"","null","html-keyboard-response","288","2.0.0","331869","pt67jxgw74e","smaller","seal","to see if i was going to choose the smaller based on actual object size vs the size that was shown","no","<div style=""font-size:60px;"">+</div>","null","","","","","","",""
"","623","image-keyboard-response","289","2.0.0","332493","pt67jxgw74e","smaller","seal","to see if i was going to choose the smaller based on actual object size vs the size that was shown","no","stimuli/31-Inongruent.jpg","z","","","","","left","z","true"
"","null","html-keyboard-response","290","2.0.0","333396","pt67jxgw74e","smaller","seal","to see if i was going to choose the smaller based on actual object size vs the size that was shown","no","<p>Correct!</p>","null","","","","","","",""
"","null","html-keyboard-response","291","2.0.0","334398","pt67jxgw74e","smaller","seal","to see if i was going to choose the smaller based on actual object size vs the size that was shown","no","<div style=""font-size:60px;"">+</div>","null","","","","","","",""
"","473","image-keyboard-response","292","2.0.0","334872","pt67jxgw74e","smaller","seal","to see if i was going to choose the smaller based on actual object size vs the size that was shown","no","stimuli/32-Inongruent.jpg","z","","","","","left","z","true"
"","null","html-keyboard-response","293","2.0.0","335774","pt67jxgw74e","smaller","seal","to see if i was going to choose the smaller based on actual object size vs the size that was shown","no","<p>Correct!</p>","null","","","","","","",""
"","null","html-keyboard-response","294","2.0.0","336776","pt67jxgw74e","smaller","seal","to see if i was going to choose the smaller based on actual object size vs the size that was shown","no","<div style=""font-size:60px;"">+</div>","null","","","","","","",""
"","422","image-keyboard-response","295","2.0.0","337199","pt67jxgw74e","smaller","seal","to see if i was going to choose the smaller based on actual object size vs the size that was shown","no","stimuli/11-Inongruent.jpg","z","","","","","left","z","true"
"","null","html-keyboard-response","296","2.0.0","338102","pt67jxgw74e","smaller","seal","to see if i was going to choose the smaller based on actual object size vs the size that was shown","no","<p>Correct!</p>","null","","","","","","",""
"","null","html-keyboard-response","297","2.0.0","339104","pt67jxgw74e","smaller","seal","to see if i was going to choose the smaller based on actual object size vs the size that was shown","no","<div style=""font-size:60px;"">+</div>","null","","","","","","",""
"","505","image-keyboard-response","298","2.0.0","339611","pt67jxgw74e","smaller","seal","to see if i was going to choose the smaller based on actual object size vs the size that was shown","no","stimuli/13-Inongruent.jpg","z","","","","","left","z","true"
"","null","html-keyboard-response","299","2.0.0","340512","pt67jxgw74e","smaller","seal","to see if i was going to choose the smaller based on actual object size vs the size that was shown","no","<p>Correct!</p>","null","","","","","","",""
"","null","html-keyboard-response","300","2.0.0","341514","pt67jxgw74e","smaller","seal","to see if i was going to choose the smaller based on actual object size vs the size that was shown","no","<div style=""font-size:60px;"">+</div>","null","","","","","","",""
"","568","image-keyboard-response","301","2.0.0","342082","pt67jxgw74e","smaller","seal","to see if i was going to choose the smaller based on actual object size vs the size that was shown","no","stimuli/5-Congruent.jpg","m","","","","","right","m","true"
"","null","html-keyboard-response","302","2.0.0","342984","pt67jxgw74e","smaller","seal","to see if i was going to choose the smaller based on actual object size vs the size that was shown","no","<p>Correct!</p>","null","","","","","","",""
"","null","html-keyboard-response","303","2.0.0","343987","pt67jxgw74e","smaller","seal","to see if i was going to choose the smaller based on actual object size vs the size that was shown","no","<div style=""font-size:60px;"">+</div>","null","","","","","","",""
"","461","image-keyboard-response","304","2.0.0","344449","pt67jxgw74e","smaller","seal","to see if i was going to choose the smaller based on actual object size vs the size that was shown","no","stimuli/27-Inongruent.jpg","z","","","","","left","z","true"
"","null","html-keyboard-response","305","2.0.0","345351","pt67jxgw74e","smaller","seal","to see if i was going to choose the smaller based on actual object size vs the size that was shown","no","<p>Correct!</p>","null","","","","","","",""
"","null","html-keyboard-response","306","2.0.0","346352","pt67jxgw74e","smaller","seal","to see if i was going to choose the smaller based on actual object size vs the size that was shown","no","<div style=""font-size:60px;"">+</div>","null","","","","","","",""
"","513","image-keyboard-response","307","2.0.0","346866","pt67jxgw74e","smaller","seal","to see if i was going to choose the smaller based on actual object size vs the size that was shown","no","stimuli/13-Inongruent.jpg","z","","","","","left","z","true"
"","null","html-keyboard-response","308","2.0.0","347768","pt67jxgw74e","smaller","seal","to see if i was going to choose the smaller based on actual object size vs the size that was shown","no","<p>Correct!</p>","null","","","","","","",""
"","null","html-keyboard-response","309","2.0.0","348771","pt67jxgw74e","smaller","seal","to see if i was going to choose the smaller based on actual object size vs the size that was shown","no","<div style=""font-size:60px;"">+</div>","null","","","","","","",""
"","657","image-keyboard-response","310","2.0.0","349429","pt67jxgw74e","smaller","seal","to see if i was going to choose the smaller based on actual object size vs the size that was shown","no","stimuli/31-Inongruent.jpg","z","","","","","left","z","true"
"","null","html-keyboard-response","311","2.0.0","350331","pt67jxgw74e","smaller","seal","to see if i was going to choose the smaller based on actual object size vs the size that was shown","no","<p>Correct!</p>","null","","","","","","",""
"","null","html-keyboard-response","312","2.0.0","351334","pt67jxgw74e","smaller","seal","to see if i was going to choose the smaller based on actual object size vs the size that was shown","no","<div style=""font-size:60px;"">+</div>","null","","","","","","",""
"","540","image-keyboard-response","313","2.0.0","351875","pt67jxgw74e","smaller","seal","to see if i was going to choose the smaller based on actual object size vs the size that was shown","no","stimuli/2-Congruent.jpg","m","","","","","right","m","true"
"","null","html-keyboard-response","314","2.0.0","352778","pt67jxgw74e","smaller","seal","to see if i was going to choose the smaller based on actual object size vs the size that was shown","no","<p>Correct!</p>","null","","","","","","",""
"","null","html-keyboard-response","315","2.0.0","353780","pt67jxgw74e","smaller","seal","to see if i was going to choose the smaller based on actual object size vs the size that was shown","no","<div style=""font-size:60px;"">+</div>","null","","","","","","",""
"","549","image-keyboard-response","316","2.0.0","354331","pt67jxgw74e","smaller","seal","to see if i was going to choose the smaller based on actual object size vs the size that was shown","no","stimuli/30-Congruent.jpg","m","","","","","right","m","true"
"","null","html-keyboard-response","317","2.0.0","355233","pt67jxgw74e","smaller","seal","to see if i was going to choose the smaller based on actual object size vs the size that was shown","no","<p>Correct!</p>","null","","","","","","",""
"","null","html-keyboard-response","318","2.0.0","356235","pt67jxgw74e","smaller","seal","to see if i was going to choose the smaller based on actual object size vs the size that was shown","no","<div style=""font-size:60px;"">+</div>","null","","","","","","",""
"","510","image-keyboard-response","319","2.0.0","356746","pt67jxgw74e","smaller","seal","to see if i was going to choose the smaller based on actual object size vs the size that was shown","no","stimuli/16-Inongruent.jpg","z","","","","","left","z","true"
"","null","html-keyboard-response","320","2.0.0","357647","pt67jxgw74e","smaller","seal","to see if i was going to choose the smaller based on actual object size vs the size that was shown","no","<p>Correct!</p>","null","","","","","","",""
"","null","html-keyboard-response","321","2.0.0","358649","pt67jxgw74e","smaller","seal","to see if i was going to choose the smaller based on actual object size vs the size that was shown","no","<div style=""font-size:60px;"">+</div>","null","","","","","","",""
"","445","image-keyboard-response","322","2.0.0","359095","pt67jxgw74e","smaller","seal","to see if i was going to choose the smaller based on actual object size vs the size that was shown","no","stimuli/3-Inongruent.jpg","z","","","","","left","z","true"
"","null","html-keyboard-response","323","2.0.0","359997","pt67jxgw74e","smaller","seal","to see if i was going to choose the smaller based on actual object size vs the size that was shown","no","<p>Correct!</p>","null","","","","","","",""
"","null","html-keyboard-response","324","2.0.0","360999","pt67jxgw74e","smaller","seal","to see if i was going to choose the smaller based on actual object size vs the size that was shown","no","<div style=""font-size:60px;"">+</div>","null","","","","","","",""
"","599","image-keyboard-response","325","2.0.0","361599","pt67jxgw74e","smaller","seal","to see if i was going to choose the smaller based on actual object size vs the size that was shown","no","stimuli/12-Congruent.jpg","m","","","","","right","m","true"
"","null","html-keyboard-response","326","2.0.0","362501","pt67jxgw74e","smaller","seal","to see if i was going to choose the smaller based on actual object size vs the size that was shown","no","<p>Correct!</p>","null","","","","","","",""
"","null","html-keyboard-response","327","2.0.0","363504","pt67jxgw74e","smaller","seal","to see if i was going to choose the smaller based on actual object size vs the size that was shown","no","<div style=""font-size:60px;"">+</div>","null","","","","","","",""
"","507","image-keyboard-response","328","2.0.0","364011","pt67jxgw74e","smaller","seal","to see if i was going to choose the smaller based on actual object size vs the size that was shown","no","stimuli/10-Inongruent.jpg","z","","","","","left","z","true"
"","null","html-keyboard-response","329","2.0.0","364913","pt67jxgw74e","smaller","seal","to see if i was going to choose the smaller based on actual object size vs the size that was shown","no","<p>Correct!</p>","null","","","","","","",""
"","null","html-keyboard-response","330","2.0.0","365915","pt67jxgw74e","smaller","seal","to see if i was going to choose the smaller based on actual object size vs the size that was shown","no","<div style=""font-size:60px;"">+</div>","null","","","","","","",""
"","586","image-keyboard-response","331","2.0.0","366501","pt67jxgw74e","smaller","seal","to see if i was going to choose the smaller based on actual object size vs the size that was shown","no","stimuli/35-Congruent.jpg","m","","","","","right","m","true"
"","null","html-keyboard-response","332","2.0.0","367404","pt67jxgw74e","smaller","seal","to see if i was going to choose the smaller based on actual object size vs the size that was shown","no","<p>Correct!</p>","null","","","","","","",""
"","null","html-keyboard-response","333","2.0.0","368406","pt67jxgw74e","smaller","seal","to see if i was going to choose the smaller based on actual object size vs the size that was shown","no","<div style=""font-size:60px;"">+</div>","null","","","","","","",""
"","495","image-keyboard-response","334","2.0.0","368902","pt67jxgw74e","smaller","seal","to see if i was going to choose the smaller based on actual object size vs the size that was shown","no","stimuli/19-Inongruent.jpg","z","","","","","left","z","true"
"","null","html-keyboard-response","335","2.0.0","369804","pt67jxgw74e","smaller","seal","to see if i was going to choose the smaller based on actual object size vs the size that was shown","no","<p>Correct!</p>","null","","","","","","",""
"","null","html-keyboard-response","336","2.0.0","370807","pt67jxgw74e","smaller","seal","to see if i was going to choose the smaller based on actual object size vs the size that was shown","no","<div style=""font-size:60px;"">+</div>","null","","","","","","",""
"","491","image-keyboard-response","337","2.0.0","371299","pt67jxgw74e","smaller","seal","to see if i was going to choose the smaller based on actual object size vs the size that was shown","no","stimuli/5-Congruent.jpg","m","","","","","right","m","true"
"","null","html-keyboard-response","338","2.0.0","372201","pt67jxgw74e","smaller","seal","to see if i was going to choose the smaller based on actual object size vs the size that was shown","no","<p>Correct!</p>","null","","","","","","",""
"","null","html-keyboard-response","339","2.0.0","373203","pt67jxgw74e","smaller","seal","to see if i was going to choose the smaller based on actual object size vs the size that was shown","no","<div style=""font-size:60px;"">+</div>","null","","","","","","",""
"","597","image-keyboard-response","340","2.0.0","373801","pt67jxgw74e","smaller","seal","to see if i was going to choose the smaller based on actual object size vs the size that was shown","no","stimuli/14-Congruent.jpg","m","","","","","right","m","true"
"","null","html-keyboard-response","341","2.0.0","374703","pt67jxgw74e","smaller","seal","to see if i was going to choose the smaller based on actual object size vs the size that was shown","no","<p>Correct!</p>","null","","","","","","",""
"","null","html-keyboard-response","342","2.0.0","375705","pt67jxgw74e","smaller","seal","to see if i was going to choose the smaller based on actual object size vs the size that was shown","no","<div style=""font-size:60px;"">+</div>","null","","","","","","",""
"","571","image-keyboard-response","343","2.0.0","376277","pt67jxgw74e","smaller","seal","to see if i was going to choose the smaller based on actual object size vs the size that was shown","no","stimuli/16-Congruent.jpg","m","","","","","right","m","true"
"","null","html-keyboard-response","344","2.0.0","377179","pt67jxgw74e","smaller","seal","to see if i was going to choose the smaller based on actual object size vs the size that was shown","no","<p>Correct!</p>","null","","","","","","",""
"","null","html-keyboard-response","345","2.0.0","378181","pt67jxgw74e","smaller","seal","to see if i was going to choose the smaller based on actual object size vs the size that was shown","no","<div style=""font-size:60px;"">+</div>","null","","","","","","",""
"","477","image-keyboard-response","346","2.0.0","378660","pt67jxgw74e","smaller","seal","to see if i was going to choose the smaller based on actual object size vs the size that was shown","no","stimuli/22-Inongruent.jpg","z","","","","","left","z","true"
"","null","html-keyboard-response","347","2.0.0","379562","pt67jxgw74e","smaller","seal","to see if i was going to choose the smaller based on actual object size vs the size that was shown","no","<p>Correct!</p>","null","","","","","","",""
"","null","html-keyboard-response","348","2.0.0","380565","pt67jxgw74e","smaller","seal","to see if i was going to choose the smaller based on actual object size vs the size that was shown","no","<div style=""font-size:60px;"">+</div>","null","","","","","","",""
"","676","image-keyboard-response","349","2.0.0","381241","pt67jxgw74e","smaller","seal","to see if i was going to choose the smaller based on actual object size vs the size that was shown","no","stimuli/24-Inongruent.jpg","z","","","","","left","z","true"
"","null","html-keyboard-response","350","2.0.0","382144","pt67jxgw74e","smaller","seal","to see if i was going to choose the smaller based on actual object size vs the size that was shown","no","<p>Correct!</p>","null","","","","","","",""
"","null","html-keyboard-response","351","2.0.0","383145","pt67jxgw74e","smaller","seal","to see if i was going to choose the smaller based on actual object size vs the size that was shown","no","<div style=""font-size:60px;"">+</div>","null","","","","","","",""
"","441","image-keyboard-response","352","2.0.0","383587","pt67jxgw74e","smaller","seal","to see if i was going to choose the smaller based on actual object size vs the size that was shown","no","stimuli/27-Congruent.jpg","m","","","","","right","m","true"
"","null","html-keyboard-response","353","2.0.0","384489","pt67jxgw74e","smaller","seal","to see if i was going to choose the smaller based on actual object size vs the size that was shown","no","<p>Correct!</p>","null","","","","","","",""
"","null","html-keyboard-response","354","2.0.0","385491","pt67jxgw74e","smaller","seal","to see if i was going to choose the smaller based on actual object size vs the size that was shown","no","<div style=""font-size:60px;"">+</div>","null","","","","","","",""
"","585","image-keyboard-response","355","2.0.0","386077","pt67jxgw74e","smaller","seal","to see if i was going to choose the smaller based on actual object size vs the size that was shown","no","stimuli/6-Inongruent.jpg","z","","","","","left","z","true"
"","null","html-keyboard-response","356","2.0.0","386979","pt67jxgw74e","smaller","seal","to see if i was going to choose the smaller based on actual object size vs the size that was shown","no","<p>Correct!</p>","null","","","","","","",""
"","null","html-keyboard-response","357","2.0.0","387981","pt67jxgw74e","smaller","seal","to see if i was going to choose the smaller based on actual object size vs the size that was shown","no","<div style=""font-size:60px;"">+</div>","null","","","","","","",""
"","809","image-keyboard-response","358","2.0.0","388791","pt67jxgw74e","smaller","seal","to see if i was going to choose the smaller based on actual object size vs the size that was shown","no","stimuli/34-Inongruent.jpg","z","","","","","left","z","true"
"","null","html-keyboard-response","359","2.0.0","389693","pt67jxgw74e","smaller","seal","to see if i was going to choose the smaller based on actual object size vs the size that was shown","no","<p>Correct!</p>","null","","","","","","",""
"","null","html-keyboard-response","360","2.0.0","390695","pt67jxgw74e","smaller","seal","to see if i was going to choose the smaller based on actual object size vs the size that was shown","no","<div style=""font-size:60px;"">+</div>","null","","","","","","",""
"","619","image-keyboard-response","361","2.0.0","391316","pt67jxgw74e","smaller","seal","to see if i was going to choose the smaller based on actual object size vs the size that was shown","no","stimuli/34-Congruent.jpg","m","","","","","right","m","true"
"","null","html-keyboard-response","362","2.0.0","392218","pt67jxgw74e","smaller","seal","to see if i was going to choose the smaller based on actual object size vs the size that was shown","no","<p>Correct!</p>","null","","","","","","",""
"","null","html-keyboard-response","363","2.0.0","393220","pt67jxgw74e","smaller","seal","to see if i was going to choose the smaller based on actual object size vs the size that was shown","no","<div style=""font-size:60px;"">+</div>","null","","","","","","",""
"","700","image-keyboard-response","364","2.0.0","393921","pt67jxgw74e","smaller","seal","to see if i was going to choose the smaller based on actual object size vs the size that was shown","no","stimuli/25-Congruent.jpg","m","","","","","right","m","true"
"","null","html-keyboard-response","365","2.0.0","394823","pt67jxgw74e","smaller","seal","to see if i was going to choose the smaller based on actual object size vs the size that was shown","no","<p>Correct!</p>","null","","","","","","",""
"","null","html-keyboard-response","366","2.0.0","395826","pt67jxgw74e","smaller","seal","to see if i was going to choose the smaller based on actual object size vs the size that was shown","no","<div style=""font-size:60px;"">+</div>","null","","","","","","",""
"","528","image-keyboard-response","367","2.0.0","396355","pt67jxgw74e","smaller","seal","to see if i was going to choose the smaller based on actual object size vs the size that was shown","no","stimuli/29-Congruent.jpg","m","","","","","right","m","true"
"","null","html-keyboard-response","368","2.0.0","397256","pt67jxgw74e","smaller","seal","to see if i was going to choose the smaller based on actual object size vs the size that was shown","no","<p>Correct!</p>","null","","","","","","",""
"","null","html-keyboard-response","369","2.0.0","398259","pt67jxgw74e","smaller","seal","to see if i was going to choose the smaller based on actual object size vs the size that was shown","no","<div style=""font-size:60px;"">+</div>","null","","","","","","",""
"","449","image-keyboard-response","370","2.0.0","398709","pt67jxgw74e","smaller","seal","to see if i was going to choose the smaller based on actual object size vs the size that was shown","no","stimuli/36-Congruent.jpg","m","","","","","right","m","true"
"","null","html-keyboard-response","371","2.0.0","399611","pt67jxgw74e","smaller","seal","to see if i was going to choose the smaller based on actual object size vs the size that was shown","no","<p>Correct!</p>","null","","","","","","",""
"","null","html-keyboard-response","372","2.0.0","400613","pt67jxgw74e","smaller","seal","to see if i was going to choose the smaller based on actual object size vs the size that was shown","no","<div style=""font-size:60px;"">+</div>","null","","","","","","",""
"","447","image-keyboard-response","373","2.0.0","401061","pt67jxgw74e","smaller","seal","to see if i was going to choose the smaller based on actual object size vs the size that was shown","no","stimuli/32-Inongruent.jpg","z","","","","","left","z","true"
"","null","html-keyboard-response","374","2.0.0","401963","pt67jxgw74e","smaller","seal","to see if i was going to choose the smaller based on actual object size vs the size that was shown","no","<p>Correct!</p>","null","","","","","","",""
"","null","html-keyboard-response","375","2.0.0","402965","pt67jxgw74e","smaller","seal","to see if i was going to choose the smaller based on actual object size vs the size that was shown","no","<div style=""font-size:60px;"">+</div>","null","","","","","","",""
"","467","image-keyboard-response","376","2.0.0","403433","pt67jxgw74e","smaller","seal","to see if i was going to choose the smaller based on actual object size vs the size that was shown","no","stimuli/16-Congruent.jpg","m","","","","","right","m","true"
"","null","html-keyboard-response","377","2.0.0","404335","pt67jxgw74e","smaller","seal","to see if i was going to choose the smaller based on actual object size vs the size that was shown","no","<p>Correct!</p>","null","","","","","","",""
"","null","html-keyboard-response","378","2.0.0","405337","pt67jxgw74e","smaller","seal","to see if i was going to choose the smaller based on actual object size vs the size that was shown","no","<div style=""font-size:60px;"">+</div>","null","","","","","","",""
"","491","image-keyboard-response","379","2.0.0","405829","pt67jxgw74e","smaller","seal","to see if i was going to choose the smaller based on actual object size vs the size that was shown","no","stimuli/34-Congruent.jpg","m","","","","","right","m","true"
"","null","html-keyboard-response","380","2.0.0","406731","pt67jxgw74e","smaller","seal","to see if i was going to choose the smaller based on actual object size vs the size that was shown","no","<p>Correct!</p>","null","","","","","","",""
"","null","html-keyboard-response","381","2.0.0","407734","pt67jxgw74e","smaller","seal","to see if i was going to choose the smaller based on actual object size vs the size that was shown","no","<div style=""font-size:60px;"">+</div>","null","","","","","","",""
"","487","image-keyboard-response","382","2.0.0","408221","pt67jxgw74e","smaller","seal","to see if i was going to choose the smaller based on actual object size vs the size that was shown","no","stimuli/15-Congruent.jpg","m","","","","","right","m","true"
"","null","html-keyboard-response","383","2.0.0","409122","pt67jxgw74e","smaller","seal","to see if i was going to choose the smaller based on actual object size vs the size that was shown","no","<p>Correct!</p>","null","","","","","","",""
"","null","html-keyboard-response","384","2.0.0","410124","pt67jxgw74e","smaller","seal","to see if i was going to choose the smaller based on actual object size vs the size that was shown","no","<div style=""font-size:60px;"">+</div>","null","","","","","","",""
"","473","image-keyboard-response","385","2.0.0","410599","pt67jxgw74e","smaller","seal","to see if i was going to choose the smaller based on actual object size vs the size that was shown","no","stimuli/18-Congruent.jpg","m","","","","","right","m","true"
"","null","html-keyboard-response","386","2.0.0","411500","pt67jxgw74e","smaller","seal","to see if i was going to choose the smaller based on actual object size vs the size that was shown","no","<p>Correct!</p>","null","","","","","","",""
"","null","html-keyboard-response","387","2.0.0","412502","pt67jxgw74e","smaller","seal","to see if i was going to choose the smaller based on actual object size vs the size that was shown","no","<div style=""font-size:60px;"">+</div>","null","","","","","","",""
"","479","image-keyboard-response","388","2.0.0","412982","pt67jxgw74e","smaller","seal","to see if i was going to choose the smaller based on actual object size vs the size that was shown","no","stimuli/14-Congruent.jpg","m","","","","","right","m","true"
"","null","html-keyboard-response","389","2.0.0","413884","pt67jxgw74e","smaller","seal","to see if i was going to choose the smaller based on actual object size vs the size that was shown","no","<p>Correct!</p>","null","","","","","","",""
