"success","rt","trial_type","trial_index","plugin_version","time_elapsed","random_id","condition","participant","participant_thoughts","participant_difficulties","stimulus","response","timeout","failed_images","failed_audio","failed_video","correct_response","correct_response_key","correct"
"true","3170","fullscreen","0","null","4174","pu7p7uv6k6t","bigger","trex","stroop effect","no","","","","","","","","",""
"","6372","html-keyboard-response","1","2.0.0","10547","pu7p7uv6k6t","bigger","trex","stroop effect","no","Welcome to the Size Stroop experiment. Press any key to begin."," ","","","","","","",""
"","null","html-keyboard-response","2","2.0.0","11549","pu7p7uv6k6t","bigger","trex","stroop effect","no","This trial will be in fullscreen mode.","null","","","","","","",""
"","30620","survey-text","3","2.0.0","42171","pu7p7uv6k6t","bigger","trex","stroop effect","no","","{""participant_id"":""trex""}","","","","","","",""
"","8257","html-keyboard-response","4","2.0.0","50429","pu7p7uv6k6t","bigger","trex","stroop effect","no","<p>In this experiment, two images will appear on the screen. Identify the <strong>larger</strong> images.</p>
              <p>If the image on the left is larger, press ""z"". If the image on the right is larger, press ""m"".</p>
              <p>Press any key to begin.</p>"," ","","","","","","",""
"true","","preload","5","2.0.0","51053","pu7p7uv6k6t","bigger","trex","stroop effect","no","","","false","[]","[]","[]","","",""
"","null","html-keyboard-response","6","2.0.0","52055","pu7p7uv6k6t","bigger","trex","stroop effect","no","<div style=""font-size:60px;"">+</div>","null","","","","","","",""
"","1149","image-keyboard-response","7","2.0.0","53207","pu7p7uv6k6t","bigger","trex","stroop effect","no","stimuli/7-Inongruent.jpg","m","","","","","right","m","true"
"","null","html-keyboard-response","8","2.0.0","54111","pu7p7uv6k6t","bigger","trex","stroop effect","no","<p>Correct!</p>","null","","","","","","",""
"","null","html-keyboard-response","9","2.0.0","55114","pu7p7uv6k6t","bigger","trex","stroop effect","no","<div style=""font-size:60px;"">+</div>","null","","","","","","",""
"","595","image-keyboard-response","10","2.0.0","55711","pu7p7uv6k6t","bigger","trex","stroop effect","no","stimuli/16-Inongruent.jpg","m","","","","","right","m","true"
"","null","html-keyboard-response","11","2.0.0","56614","pu7p7uv6k6t","bigger","trex","stroop effect","no","<p>Correct!</p>","null","","","","","","",""
"","null","html-keyboard-response","12","2.0.0","57618","pu7p7uv6k6t","bigger","trex","stroop effect","no","<div style=""font-size:60px;"">+</div>","null","","","","","","",""
"","1070","image-keyboard-response","13","2.0.0","58690","pu7p7uv6k6t","bigger","trex","stroop effect","no","stimuli/31-Congruent.jpg","z","","","","","left","z","true"
"","null","html-keyboard-response","14","2.0.0","59593","pu7p7uv6k6t","bigger","trex","stroop effect","no","<p>Correct!</p>","null","","","","","","",""
"","null","html-keyboard-response","15","2.0.0","60594","pu7p7uv6k6t","bigger","trex","stroop effect","no","<div style=""font-size:60px;"">+</div>","null","","","","","","",""
"","1310","image-keyboard-response","16","2.0.0","61906","pu7p7uv6k6t","bigger","trex","stroop effect","no","stimuli/4-Inongruent.jpg","z","","","","","right","m","false"
"","null","html-keyboard-response","17","2.0.0","66909","pu7p7uv6k6t","bigger","trex","stroop effect","no","<p>Incorrect.</p><p>Remember to select the <b>bigger</b> image.</p><p>Continuing in 5 seconds...</p>","null","","","","","","",""
"","null","html-keyboard-response","18","2.0.0","67911","pu7p7uv6k6t","bigger","trex","stroop effect","no","<div style=""font-size:60px;"">+</div>","null","","","","","","",""
"","923","image-keyboard-response","19","2.0.0","68836","pu7p7uv6k6t","bigger","trex","stroop effect","no","stimuli/6-Congruent.jpg","z","","","","","left","z","true"
"","null","html-keyboard-response","20","2.0.0","69738","pu7p7uv6k6t","bigger","trex","stroop effect","no","<p>Correct!</p>","null","","","","","","",""
"","null","html-keyboard-response","21","2.0.0","70740","pu7p7uv6k6t","bigger","trex","stroop effect","no","<div style=""font-size:60px;"">+</div>","null","","","","","","",""
"","609","image-keyboard-response","22","2.0.0","71351","pu7p7uv6k6t","bigger","trex","stroop effect","no","stimuli/11-Congruent.jpg","z","","","","","left","z","true"
"","null","html-keyboard-response","23","2.0.0","72253","pu7p7uv6k6t","bigger","trex","stroop effect","no","<p>Correct!</p>","null","","","","","","",""
"","null","html-keyboard-response","24","2.0.0","73255","pu7p7uv6k6t","bigger","trex","stroop effect","no","<div style=""font-size:60px;"">+</div>","null","","","","","","",""
"","522","image-keyboard-response","25","2.0.0","73779","pu7p7uv6k6t","bigger","trex","stroop effect","no","stimuli/1-Inongruent.jpg","m","","","","","right","m","true"
"","null","html-keyboard-response","26","2.0.0","74681","pu7p7uv6k6t","bigger","trex","stroop effect","no","<p>Correct!</p>","null","","","","","","",""
"","null","html-keyboard-response","27","2.0.0","75684","pu7p7uv6k6t","bigger","trex","stroop effect","no","<div style=""font-size:60px;"">+</div>","null","","","","","","",""
"","454","image-keyboard-response","28","2.0.0","76140","pu7p7uv6k6t","bigger","trex","stroop effect","no","stimuli/26-Inongruent.jpg","m","","","","","right","m","true"
"","null","html-keyboard-response","29","2.0.0","77043","pu7p7uv6k6t","bigger","trex","stroop effect","no","<p>Correct!</p>","null","","","","","","",""
"","null","html-keyboard-response","30","2.0.0","78046","pu7p7uv6k6t","bigger","trex","stroop effect","no","<div style=""font-size:60px;"">+</div>","null","","","","","","",""
"","485","image-keyboard-response","31","2.0.0","78534","pu7p7uv6k6t","bigger","trex","stroop effect","no","stimuli/23-Inongruent.jpg","m","","","","","right","m","true"
"","null","html-keyboard-response","32","2.0.0","79437","pu7p7uv6k6t","bigger","trex","stroop effect","no","<p>Correct!</p>","null","","","","","","",""
"","null","html-keyboard-response","33","2.0.0","80439","pu7p7uv6k6t","bigger","trex","stroop effect","no","<div style=""font-size:60px;"">+</div>","null","","","","","","",""
"","524","image-keyboard-response","34","2.0.0","80965","pu7p7uv6k6t","bigger","trex","stroop effect","no","stimuli/21-Congruent.jpg","z","","","","","left","z","true"
"","null","html-keyboard-response","35","2.0.0","81867","pu7p7uv6k6t","bigger","trex","stroop effect","no","<p>Correct!</p>","null","","","","","","",""
"","null","html-keyboard-response","36","2.0.0","82870","pu7p7uv6k6t","bigger","trex","stroop effect","no","<div style=""font-size:60px;"">+</div>","null","","","","","","",""
"","8655","image-keyboard-response","37","2.0.0","91527","pu7p7uv6k6t","bigger","trex","stroop effect","no","stimuli/4-Inongruent.jpg","m","","","","","right","m","true"
"","null","html-keyboard-response","38","2.0.0","92430","pu7p7uv6k6t","bigger","trex","stroop effect","no","<p>Correct!</p>","null","","","","","","",""
"","null","html-keyboard-response","39","2.0.0","93432","pu7p7uv6k6t","bigger","trex","stroop effect","no","<div style=""font-size:60px;"">+</div>","null","","","","","","",""
"","1446","image-keyboard-response","40","2.0.0","94880","pu7p7uv6k6t","bigger","trex","stroop effect","no","stimuli/33-Inongruent.jpg","m","","","","","right","m","true"
"","null","html-keyboard-response","41","2.0.0","95782","pu7p7uv6k6t","bigger","trex","stroop effect","no","<p>Correct!</p>","null","","","","","","",""
"","null","html-keyboard-response","42","2.0.0","96785","pu7p7uv6k6t","bigger","trex","stroop effect","no","<div style=""font-size:60px;"">+</div>","null","","","","","","",""
"","634","image-keyboard-response","43","2.0.0","97421","pu7p7uv6k6t","bigger","trex","stroop effect","no","stimuli/34-Inongruent.jpg","m","","","","","right","m","true"
"","null","html-keyboard-response","44","2.0.0","98323","pu7p7uv6k6t","bigger","trex","stroop effect","no","<p>Correct!</p>","null","","","","","","",""
"","null","html-keyboard-response","45","2.0.0","99326","pu7p7uv6k6t","bigger","trex","stroop effect","no","<div style=""font-size:60px;"">+</div>","null","","","","","","",""
"","954","image-keyboard-response","46","2.0.0","100282","pu7p7uv6k6t","bigger","trex","stroop effect","no","stimuli/35-Inongruent.jpg","m","","","","","right","m","true"
"","null","html-keyboard-response","47","2.0.0","101185","pu7p7uv6k6t","bigger","trex","stroop effect","no","<p>Correct!</p>","null","","","","","","",""
"","null","html-keyboard-response","48","2.0.0","102187","pu7p7uv6k6t","bigger","trex","stroop effect","no","<div style=""font-size:60px;"">+</div>","null","","","","","","",""
"","46071","image-keyboard-response","49","2.0.0","148260","pu7p7uv6k6t","bigger","trex","stroop effect","no","stimuli/6-Inongruent.jpg","m","","","","","right","m","true"
"","null","html-keyboard-response","50","2.0.0","149162","pu7p7uv6k6t","bigger","trex","stroop effect","no","<p>Correct!</p>","null","","","","","","",""
"","null","html-keyboard-response","51","2.0.0","150166","pu7p7uv6k6t","bigger","trex","stroop effect","no","<div style=""font-size:60px;"">+</div>","null","","","","","","",""
"","808","image-keyboard-response","52","2.0.0","150976","pu7p7uv6k6t","bigger","trex","stroop effect","no","stimuli/6-Congruent.jpg","z","","","","","left","z","true"
"","null","html-keyboard-response","53","2.0.0","151879","pu7p7uv6k6t","bigger","trex","stroop effect","no","<p>Correct!</p>","null","","","","","","",""
"","null","html-keyboard-response","54","2.0.0","152881","pu7p7uv6k6t","bigger","trex","stroop effect","no","<div style=""font-size:60px;"">+</div>","null","","","","","","",""
"","508","image-keyboard-response","55","2.0.0","153392","pu7p7uv6k6t","bigger","trex","stroop effect","no","stimuli/15-Inongruent.jpg","m","","","","","right","m","true"
"","null","html-keyboard-response","56","2.0.0","154295","pu7p7uv6k6t","bigger","trex","stroop effect","no","<p>Correct!</p>","null","","","","","","",""
"","null","html-keyboard-response","57","2.0.0","155298","pu7p7uv6k6t","bigger","trex","stroop effect","no","<div style=""font-size:60px;"">+</div>","null","","","","","","",""
"","760","image-keyboard-response","58","2.0.0","156060","pu7p7uv6k6t","bigger","trex","stroop effect","no","stimuli/7-Congruent.jpg","z","","","","","left","z","true"
"","null","html-keyboard-response","59","2.0.0","156963","pu7p7uv6k6t","bigger","trex","stroop effect","no","<p>Correct!</p>","null","","","","","","",""
"","null","html-keyboard-response","60","2.0.0","157966","pu7p7uv6k6t","bigger","trex","stroop effect","no","<div style=""font-size:60px;"">+</div>","null","","","","","","",""
"","606","image-keyboard-response","61","2.0.0","158573","pu7p7uv6k6t","bigger","trex","stroop effect","no","stimuli/31-Congruent.jpg","z","","","","","left","z","true"
"","null","html-keyboard-response","62","2.0.0","159476","pu7p7uv6k6t","bigger","trex","stroop effect","no","<p>Correct!</p>","null","","","","","","",""
"","null","html-keyboard-response","63","2.0.0","160479","pu7p7uv6k6t","bigger","trex","stroop effect","no","<div style=""font-size:60px;"">+</div>","null","","","","","","",""
"","837","image-keyboard-response","64","2.0.0","161318","pu7p7uv6k6t","bigger","trex","stroop effect","no","stimuli/10-Inongruent.jpg","m","","","","","right","m","true"
"","null","html-keyboard-response","65","2.0.0","162220","pu7p7uv6k6t","bigger","trex","stroop effect","no","<p>Correct!</p>","null","","","","","","",""
"","null","html-keyboard-response","66","2.0.0","163222","pu7p7uv6k6t","bigger","trex","stroop effect","no","<div style=""font-size:60px;"">+</div>","null","","","","","","",""
"","617","image-keyboard-response","67","2.0.0","163841","pu7p7uv6k6t","bigger","trex","stroop effect","no","stimuli/14-Congruent.jpg","z","","","","","left","z","true"
"","null","html-keyboard-response","68","2.0.0","164744","pu7p7uv6k6t","bigger","trex","stroop effect","no","<p>Correct!</p>","null","","","","","","",""
"","null","html-keyboard-response","69","2.0.0","165747","pu7p7uv6k6t","bigger","trex","stroop effect","no","<div style=""font-size:60px;"">+</div>","null","","","","","","",""
"","348","image-keyboard-response","70","2.0.0","166097","pu7p7uv6k6t","bigger","trex","stroop effect","no","stimuli/10-Inongruent.jpg","m","","","","","right","m","true"
"","null","html-keyboard-response","71","2.0.0","166999","pu7p7uv6k6t","bigger","trex","stroop effect","no","<p>Correct!</p>","null","","","","","","",""
"","null","html-keyboard-response","72","2.0.0","168002","pu7p7uv6k6t","bigger","trex","stroop effect","no","<div style=""font-size:60px;"">+</div>","null","","","","","","",""
"","415","image-keyboard-response","73","2.0.0","168419","pu7p7uv6k6t","bigger","trex","stroop effect","no","stimuli/5-Inongruent.jpg","m","","","","","right","m","true"
"","null","html-keyboard-response","74","2.0.0","169322","pu7p7uv6k6t","bigger","trex","stroop effect","no","<p>Correct!</p>","null","","","","","","",""
"","null","html-keyboard-response","75","2.0.0","170324","pu7p7uv6k6t","bigger","trex","stroop effect","no","<div style=""font-size:60px;"">+</div>","null","","","","","","",""
"","523","image-keyboard-response","76","2.0.0","170849","pu7p7uv6k6t","bigger","trex","stroop effect","no","stimuli/10-Congruent.jpg","z","","","","","left","z","true"
"","null","html-keyboard-response","77","2.0.0","171752","pu7p7uv6k6t","bigger","trex","stroop effect","no","<p>Correct!</p>","null","","","","","","",""
"","null","html-keyboard-response","78","2.0.0","172755","pu7p7uv6k6t","bigger","trex","stroop effect","no","<div style=""font-size:60px;"">+</div>","null","","","","","","",""
"","17873","image-keyboard-response","79","2.0.0","190630","pu7p7uv6k6t","bigger","trex","stroop effect","no","stimuli/1-Congruent.jpg","z","","","","","left","z","true"
"","null","html-keyboard-response","80","2.0.0","191532","pu7p7uv6k6t","bigger","trex","stroop effect","no","<p>Correct!</p>","null","","","","","","",""
"","null","html-keyboard-response","81","2.0.0","192536","pu7p7uv6k6t","bigger","trex","stroop effect","no","<div style=""font-size:60px;"">+</div>","null","","","","","","",""
"","439","image-keyboard-response","82","2.0.0","192976","pu7p7uv6k6t","bigger","trex","stroop effect","no","stimuli/7-Inongruent.jpg","m","","","","","right","m","true"
"","null","html-keyboard-response","83","2.0.0","193879","pu7p7uv6k6t","bigger","trex","stroop effect","no","<p>Correct!</p>","null","","","","","","",""
"","null","html-keyboard-response","84","2.0.0","194882","pu7p7uv6k6t","bigger","trex","stroop effect","no","<div style=""font-size:60px;"">+</div>","null","","","","","","",""
"","618","image-keyboard-response","85","2.0.0","195502","pu7p7uv6k6t","bigger","trex","stroop effect","no","stimuli/1-Congruent.jpg","z","","","","","left","z","true"
"","null","html-keyboard-response","86","2.0.0","196404","pu7p7uv6k6t","bigger","trex","stroop effect","no","<p>Correct!</p>","null","","","","","","",""
"","null","html-keyboard-response","87","2.0.0","197407","pu7p7uv6k6t","bigger","trex","stroop effect","no","<div style=""font-size:60px;"">+</div>","null","","","","","","",""
"","4518","image-keyboard-response","88","2.0.0","201926","pu7p7uv6k6t","bigger","trex","stroop effect","no","stimuli/17-Congruent.jpg","z","","","","","left","z","true"
"","null","html-keyboard-response","89","2.0.0","202829","pu7p7uv6k6t","bigger","trex","stroop effect","no","<p>Correct!</p>","null","","","","","","",""
"","null","html-keyboard-response","90","2.0.0","203832","pu7p7uv6k6t","bigger","trex","stroop effect","no","<div style=""font-size:60px;"">+</div>","null","","","","","","",""
"","849","image-keyboard-response","91","2.0.0","204682","pu7p7uv6k6t","bigger","trex","stroop effect","no","stimuli/11-Inongruent.jpg","m","","","","","right","m","true"
"","null","html-keyboard-response","92","2.0.0","205584","pu7p7uv6k6t","bigger","trex","stroop effect","no","<p>Correct!</p>","null","","","","","","",""
"","null","html-keyboard-response","93","2.0.0","206587","pu7p7uv6k6t","bigger","trex","stroop effect","no","<div style=""font-size:60px;"">+</div>","null","","","","","","",""
"","605","image-keyboard-response","94","2.0.0","207194","pu7p7uv6k6t","bigger","trex","stroop effect","no","stimuli/5-Inongruent.jpg","m","","","","","right","m","true"
"","null","html-keyboard-response","95","2.0.0","208097","pu7p7uv6k6t","bigger","trex","stroop effect","no","<p>Correct!</p>","null","","","","","","",""
"","null","html-keyboard-response","96","2.0.0","209100","pu7p7uv6k6t","bigger","trex","stroop effect","no","<div style=""font-size:60px;"">+</div>","null","","","","","","",""
"","862","image-keyboard-response","97","2.0.0","209964","pu7p7uv6k6t","bigger","trex","stroop effect","no","stimuli/3-Congruent.jpg","z","","","","","left","z","true"
"","null","html-keyboard-response","98","2.0.0","210867","pu7p7uv6k6t","bigger","trex","stroop effect","no","<p>Correct!</p>","null","","","","","","",""
"","null","html-keyboard-response","99","2.0.0","211870","pu7p7uv6k6t","bigger","trex","stroop effect","no","<div style=""font-size:60px;"">+</div>","null","","","","","","",""
"","7059","image-keyboard-response","100","2.0.0","218931","pu7p7uv6k6t","bigger","trex","stroop effect","no","stimuli/35-Congruent.jpg","z","","","","","left","z","true"
"","null","html-keyboard-response","101","2.0.0","219834","pu7p7uv6k6t","bigger","trex","stroop effect","no","<p>Correct!</p>","null","","","","","","",""
"","null","html-keyboard-response","102","2.0.0","220836","pu7p7uv6k6t","bigger","trex","stroop effect","no","<div style=""font-size:60px;"">+</div>","null","","","","","","",""
"","1818","image-keyboard-response","103","2.0.0","222656","pu7p7uv6k6t","bigger","trex","stroop effect","no","stimuli/36-Congruent.jpg","z","","","","","left","z","true"
"","null","html-keyboard-response","104","2.0.0","223559","pu7p7uv6k6t","bigger","trex","stroop effect","no","<p>Correct!</p>","null","","","","","","",""
"","null","html-keyboard-response","105","2.0.0","224561","pu7p7uv6k6t","bigger","trex","stroop effect","no","<div style=""font-size:60px;"">+</div>","null","","","","","","",""
"","1307","image-keyboard-response","106","2.0.0","225870","pu7p7uv6k6t","bigger","trex","stroop effect","no","stimuli/36-Inongruent.jpg","m","","","","","right","m","true"
"","null","html-keyboard-response","107","2.0.0","226772","pu7p7uv6k6t","bigger","trex","stroop effect","no","<p>Correct!</p>","null","","","","","","",""
"","null","html-keyboard-response","108","2.0.0","227774","pu7p7uv6k6t","bigger","trex","stroop effect","no","<div style=""font-size:60px;"">+</div>","null","","","","","","",""
"","996","image-keyboard-response","109","2.0.0","228772","pu7p7uv6k6t","bigger","trex","stroop effect","no","stimuli/5-Congruent.jpg","z","","","","","left","z","true"
"","null","html-keyboard-response","110","2.0.0","229674","pu7p7uv6k6t","bigger","trex","stroop effect","no","<p>Correct!</p>","null","","","","","","",""
"","null","html-keyboard-response","111","2.0.0","230676","pu7p7uv6k6t","bigger","trex","stroop effect","no","<div style=""font-size:60px;"">+</div>","null","","","","","","",""
"","500","image-keyboard-response","112","2.0.0","231178","pu7p7uv6k6t","bigger","trex","stroop effect","no","stimuli/4-Congruent.jpg","z","","","","","left","z","true"
"","null","html-keyboard-response","113","2.0.0","232080","pu7p7uv6k6t","bigger","trex","stroop effect","no","<p>Correct!</p>","null","","","","","","",""
"","null","html-keyboard-response","114","2.0.0","233083","pu7p7uv6k6t","bigger","trex","stroop effect","no","<div style=""font-size:60px;"">+</div>","null","","","","","","",""
"","2170","image-keyboard-response","115","2.0.0","235256","pu7p7uv6k6t","bigger","trex","stroop effect","no","stimuli/18-Congruent.jpg","z","","","","","left","z","true"
"","null","html-keyboard-response","116","2.0.0","236158","pu7p7uv6k6t","bigger","trex","stroop effect","no","<p>Correct!</p>","null","","","","","","",""
"","null","html-keyboard-response","117","2.0.0","237161","pu7p7uv6k6t","bigger","trex","stroop effect","no","<div style=""font-size:60px;"">+</div>","null","","","","","","",""
"","551","image-keyboard-response","118","2.0.0","237714","pu7p7uv6k6t","bigger","trex","stroop effect","no","stimuli/9-Inongruent.jpg","m","","","","","right","m","true"
"","null","html-keyboard-response","119","2.0.0","238616","pu7p7uv6k6t","bigger","trex","stroop effect","no","<p>Correct!</p>","null","","","","","","",""
"","null","html-keyboard-response","120","2.0.0","239619","pu7p7uv6k6t","bigger","trex","stroop effect","no","<div style=""font-size:60px;"">+</div>","null","","","","","","",""
"","496","image-keyboard-response","121","2.0.0","240116","pu7p7uv6k6t","bigger","trex","stroop effect","no","stimuli/24-Congruent.jpg","z","","","","","left","z","true"
"","null","html-keyboard-response","122","2.0.0","241018","pu7p7uv6k6t","bigger","trex","stroop effect","no","<p>Correct!</p>","null","","","","","","",""
"","null","html-keyboard-response","123","2.0.0","242022","pu7p7uv6k6t","bigger","trex","stroop effect","no","<div style=""font-size:60px;"">+</div>","null","","","","","","",""
"","481","image-keyboard-response","124","2.0.0","242504","pu7p7uv6k6t","bigger","trex","stroop effect","no","stimuli/23-Congruent.jpg","z","","","","","left","z","true"
"","null","html-keyboard-response","125","2.0.0","243407","pu7p7uv6k6t","bigger","trex","stroop effect","no","<p>Correct!</p>","null","","","","","","",""
"","null","html-keyboard-response","126","2.0.0","244409","pu7p7uv6k6t","bigger","trex","stroop effect","no","<div style=""font-size:60px;"">+</div>","null","","","","","","",""
"","580","image-keyboard-response","127","2.0.0","244992","pu7p7uv6k6t","bigger","trex","stroop effect","no","stimuli/2-Congruent.jpg","z","","","","","left","z","true"
"","null","html-keyboard-response","128","2.0.0","245894","pu7p7uv6k6t","bigger","trex","stroop effect","no","<p>Correct!</p>","null","","","","","","",""
"","null","html-keyboard-response","129","2.0.0","246897","pu7p7uv6k6t","bigger","trex","stroop effect","no","<div style=""font-size:60px;"">+</div>","null","","","","","","",""
"","607","image-keyboard-response","130","2.0.0","247505","pu7p7uv6k6t","bigger","trex","stroop effect","no","stimuli/22-Inongruent.jpg","m","","","","","right","m","true"
"","null","html-keyboard-response","131","2.0.0","248407","pu7p7uv6k6t","bigger","trex","stroop effect","no","<p>Correct!</p>","null","","","","","","",""
"","null","html-keyboard-response","132","2.0.0","249410","pu7p7uv6k6t","bigger","trex","stroop effect","no","<div style=""font-size:60px;"">+</div>","null","","","","","","",""
"","1263","image-keyboard-response","133","2.0.0","250675","pu7p7uv6k6t","bigger","trex","stroop effect","no","stimuli/31-Inongruent.jpg","m","","","","","right","m","true"
"","null","html-keyboard-response","134","2.0.0","251577","pu7p7uv6k6t","bigger","trex","stroop effect","no","<p>Correct!</p>","null","","","","","","",""
"","null","html-keyboard-response","135","2.0.0","252580","pu7p7uv6k6t","bigger","trex","stroop effect","no","<div style=""font-size:60px;"">+</div>","null","","","","","","",""
"","436","image-keyboard-response","136","2.0.0","253018","pu7p7uv6k6t","bigger","trex","stroop effect","no","stimuli/10-Congruent.jpg","z","","","","","left","z","true"
"","null","html-keyboard-response","137","2.0.0","253920","pu7p7uv6k6t","bigger","trex","stroop effect","no","<p>Correct!</p>","null","","","","","","",""
"","null","html-keyboard-response","138","2.0.0","254923","pu7p7uv6k6t","bigger","trex","stroop effect","no","<div style=""font-size:60px;"">+</div>","null","","","","","","",""
"","528","image-keyboard-response","139","2.0.0","255453","pu7p7uv6k6t","bigger","trex","stroop effect","no","stimuli/27-Congruent.jpg","z","","","","","left","z","true"
"","null","html-keyboard-response","140","2.0.0","256356","pu7p7uv6k6t","bigger","trex","stroop effect","no","<p>Correct!</p>","null","","","","","","",""
"","null","html-keyboard-response","141","2.0.0","257358","pu7p7uv6k6t","bigger","trex","stroop effect","no","<div style=""font-size:60px;"">+</div>","null","","","","","","",""
"","437","image-keyboard-response","142","2.0.0","257797","pu7p7uv6k6t","bigger","trex","stroop effect","no","stimuli/3-Inongruent.jpg","m","","","","","right","m","true"
"","null","html-keyboard-response","143","2.0.0","258700","pu7p7uv6k6t","bigger","trex","stroop effect","no","<p>Correct!</p>","null","","","","","","",""
"","null","html-keyboard-response","144","2.0.0","259702","pu7p7uv6k6t","bigger","trex","stroop effect","no","<div style=""font-size:60px;"">+</div>","null","","","","","","",""
"","534","image-keyboard-response","145","2.0.0","260239","pu7p7uv6k6t","bigger","trex","stroop effect","no","stimuli/25-Inongruent.jpg","m","","","","","right","m","true"
"","null","html-keyboard-response","146","2.0.0","261141","pu7p7uv6k6t","bigger","trex","stroop effect","no","<p>Correct!</p>","null","","","","","","",""
"","null","html-keyboard-response","147","2.0.0","262144","pu7p7uv6k6t","bigger","trex","stroop effect","no","<div style=""font-size:60px;"">+</div>","null","","","","","","",""
"","632","image-keyboard-response","148","2.0.0","262777","pu7p7uv6k6t","bigger","trex","stroop effect","no","stimuli/12-Congruent.jpg","z","","","","","left","z","true"
"","null","html-keyboard-response","149","2.0.0","263679","pu7p7uv6k6t","bigger","trex","stroop effect","no","<p>Correct!</p>","null","","","","","","",""
"","null","html-keyboard-response","150","2.0.0","264681","pu7p7uv6k6t","bigger","trex","stroop effect","no","<div style=""font-size:60px;"">+</div>","null","","","","","","",""
"","493","image-keyboard-response","151","2.0.0","265176","pu7p7uv6k6t","bigger","trex","stroop effect","no","stimuli/35-Inongruent.jpg","m","","","","","right","m","true"
"","null","html-keyboard-response","152","2.0.0","266078","pu7p7uv6k6t","bigger","trex","stroop effect","no","<p>Correct!</p>","null","","","","","","",""
"","null","html-keyboard-response","153","2.0.0","267081","pu7p7uv6k6t","bigger","trex","stroop effect","no","<div style=""font-size:60px;"">+</div>","null","","","","","","",""
"","449","image-keyboard-response","154","2.0.0","267531","pu7p7uv6k6t","bigger","trex","stroop effect","no","stimuli/14-Inongruent.jpg","m","","","","","right","m","true"
"","null","html-keyboard-response","155","2.0.0","268434","pu7p7uv6k6t","bigger","trex","stroop effect","no","<p>Correct!</p>","null","","","","","","",""
"","null","html-keyboard-response","156","2.0.0","269437","pu7p7uv6k6t","bigger","trex","stroop effect","no","<div style=""font-size:60px;"">+</div>","null","","","","","","",""
"","813","image-keyboard-response","157","2.0.0","270252","pu7p7uv6k6t","bigger","trex","stroop effect","no","stimuli/25-Congruent.jpg","z","","","","","left","z","true"
"","null","html-keyboard-response","158","2.0.0","271154","pu7p7uv6k6t","bigger","trex","stroop effect","no","<p>Correct!</p>","null","","","","","","",""
"","null","html-keyboard-response","159","2.0.0","272157","pu7p7uv6k6t","bigger","trex","stroop effect","no","<div style=""font-size:60px;"">+</div>","null","","","","","","",""
"","523","image-keyboard-response","160","2.0.0","272682","pu7p7uv6k6t","bigger","trex","stroop effect","no","stimuli/26-Congruent.jpg","z","","","","","left","z","true"
"","null","html-keyboard-response","161","2.0.0","273584","pu7p7uv6k6t","bigger","trex","stroop effect","no","<p>Correct!</p>","null","","","","","","",""
"","null","html-keyboard-response","162","2.0.0","274586","pu7p7uv6k6t","bigger","trex","stroop effect","no","<div style=""font-size:60px;"">+</div>","null","","","","","","",""
"","395","image-keyboard-response","163","2.0.0","274983","pu7p7uv6k6t","bigger","trex","stroop effect","no","stimuli/32-Inongruent.jpg","m","","","","","right","m","true"
"","null","html-keyboard-response","164","2.0.0","275885","pu7p7uv6k6t","bigger","trex","stroop effect","no","<p>Correct!</p>","null","","","","","","",""
"","null","html-keyboard-response","165","2.0.0","276888","pu7p7uv6k6t","bigger","trex","stroop effect","no","<div style=""font-size:60px;"">+</div>","null","","","","","","",""
"","369","image-keyboard-response","166","2.0.0","277259","pu7p7uv6k6t","bigger","trex","stroop effect","no","stimuli/11-Inongruent.jpg","m","","","","","right","m","true"
"","null","html-keyboard-response","167","2.0.0","278163","pu7p7uv6k6t","bigger","trex","stroop effect","no","<p>Correct!</p>","null","","","","","","",""
"","null","html-keyboard-response","168","2.0.0","279166","pu7p7uv6k6t","bigger","trex","stroop effect","no","<div style=""font-size:60px;"">+</div>","null","","","","","","",""
"","546","image-keyboard-response","169","2.0.0","279713","pu7p7uv6k6t","bigger","trex","stroop effect","no","stimuli/20-Inongruent.jpg","m","","","","","right","m","true"
"","null","html-keyboard-response","170","2.0.0","280616","pu7p7uv6k6t","bigger","trex","stroop effect","no","<p>Correct!</p>","null","","","","","","",""
"","null","html-keyboard-response","171","2.0.0","281619","pu7p7uv6k6t","bigger","trex","stroop effect","no","<div style=""font-size:60px;"">+</div>","null","","","","","","",""
"","537","image-keyboard-response","172","2.0.0","282159","pu7p7uv6k6t","bigger","trex","stroop effect","no","stimuli/34-Congruent.jpg","z","","","","","left","z","true"
"","null","html-keyboard-response","173","2.0.0","283062","pu7p7uv6k6t","bigger","trex","stroop effect","no","<p>Correct!</p>","null","","","","","","",""
"","null","html-keyboard-response","174","2.0.0","284064","pu7p7uv6k6t","bigger","trex","stroop effect","no","<div style=""font-size:60px;"">+</div>","null","","","","","","",""
"","791","image-keyboard-response","175","2.0.0","284857","pu7p7uv6k6t","bigger","trex","stroop effect","no","stimuli/22-Congruent.jpg","z","","","","","left","z","true"
"","null","html-keyboard-response","176","2.0.0","285760","pu7p7uv6k6t","bigger","trex","stroop effect","no","<p>Correct!</p>","null","","","","","","",""
"","null","html-keyboard-response","177","2.0.0","286762","pu7p7uv6k6t","bigger","trex","stroop effect","no","<div style=""font-size:60px;"">+</div>","null","","","","","","",""
"","350","image-keyboard-response","178","2.0.0","287114","pu7p7uv6k6t","bigger","trex","stroop effect","no","stimuli/18-Inongruent.jpg","m","","","","","right","m","true"
"","null","html-keyboard-response","179","2.0.0","288017","pu7p7uv6k6t","bigger","trex","stroop effect","no","<p>Correct!</p>","null","","","","","","",""
"","null","html-keyboard-response","180","2.0.0","289019","pu7p7uv6k6t","bigger","trex","stroop effect","no","<div style=""font-size:60px;"">+</div>","null","","","","","","",""
"","507","image-keyboard-response","181","2.0.0","289528","pu7p7uv6k6t","bigger","trex","stroop effect","no","stimuli/15-Congruent.jpg","z","","","","","left","z","true"
"","null","html-keyboard-response","182","2.0.0","290430","pu7p7uv6k6t","bigger","trex","stroop effect","no","<p>Correct!</p>","null","","","","","","",""
"","null","html-keyboard-response","183","2.0.0","291432","pu7p7uv6k6t","bigger","trex","stroop effect","no","<div style=""font-size:60px;"">+</div>","null","","","","","","",""
"","521","image-keyboard-response","184","2.0.0","291955","pu7p7uv6k6t","bigger","trex","stroop effect","no","stimuli/29-Congruent.jpg","z","","","","","left","z","true"
"","null","html-keyboard-response","185","2.0.0","292857","pu7p7uv6k6t","bigger","trex","stroop effect","no","<p>Correct!</p>","null","","","","","","",""
"","null","html-keyboard-response","186","2.0.0","293859","pu7p7uv6k6t","bigger","trex","stroop effect","no","<div style=""font-size:60px;"">+</div>","null","","","","","","",""
"","431","image-keyboard-response","187","2.0.0","294292","pu7p7uv6k6t","bigger","trex","stroop effect","no","stimuli/28-Inongruent.jpg","m","","","","","right","m","true"
"","null","html-keyboard-response","188","2.0.0","295195","pu7p7uv6k6t","bigger","trex","stroop effect","no","<p>Correct!</p>","null","","","","","","",""
"","null","html-keyboard-response","189","2.0.0","296198","pu7p7uv6k6t","bigger","trex","stroop effect","no","<div style=""font-size:60px;"">+</div>","null","","","","","","",""
"","446","image-keyboard-response","190","2.0.0","296645","pu7p7uv6k6t","bigger","trex","stroop effect","no","stimuli/8-Congruent.jpg","z","","","","","left","z","true"
"","null","html-keyboard-response","191","2.0.0","297547","pu7p7uv6k6t","bigger","trex","stroop effect","no","<p>Correct!</p>","null","","","","","","",""
"","null","html-keyboard-response","192","2.0.0","298550","pu7p7uv6k6t","bigger","trex","stroop effect","no","<div style=""font-size:60px;"">+</div>","null","","","","","","",""
"","572","image-keyboard-response","193","2.0.0","299124","pu7p7uv6k6t","bigger","trex","stroop effect","no","stimuli/4-Congruent.jpg","z","","","","","left","z","true"
"","null","html-keyboard-response","194","2.0.0","300026","pu7p7uv6k6t","bigger","trex","stroop effect","no","<p>Correct!</p>","null","","","","","","",""
"","null","html-keyboard-response","195","2.0.0","301028","pu7p7uv6k6t","bigger","trex","stroop effect","no","<div style=""font-size:60px;"">+</div>","null","","","","","","",""
"","558","image-keyboard-response","196","2.0.0","301589","pu7p7uv6k6t","bigger","trex","stroop effect","no","stimuli/32-Congruent.jpg","z","","","","","left","z","true"
"","null","html-keyboard-response","197","2.0.0","302491","pu7p7uv6k6t","bigger","trex","stroop effect","no","<p>Correct!</p>","null","","","","","","",""
"","null","html-keyboard-response","198","2.0.0","303494","pu7p7uv6k6t","bigger","trex","stroop effect","no","<div style=""font-size:60px;"">+</div>","null","","","","","","",""
"","458","image-keyboard-response","199","2.0.0","303954","pu7p7uv6k6t","bigger","trex","stroop effect","no","stimuli/7-Congruent.jpg","z","","","","","left","z","true"
"","null","html-keyboard-response","200","2.0.0","304856","pu7p7uv6k6t","bigger","trex","stroop effect","no","<p>Correct!</p>","null","","","","","","",""
"","null","html-keyboard-response","201","2.0.0","305858","pu7p7uv6k6t","bigger","trex","stroop effect","no","<div style=""font-size:60px;"">+</div>","null","","","","","","",""
"","443","image-keyboard-response","202","2.0.0","306303","pu7p7uv6k6t","bigger","trex","stroop effect","no","stimuli/25-Inongruent.jpg","m","","","","","right","m","true"
"","null","html-keyboard-response","203","2.0.0","307206","pu7p7uv6k6t","bigger","trex","stroop effect","no","<p>Correct!</p>","null","","","","","","",""
"","null","html-keyboard-response","204","2.0.0","308208","pu7p7uv6k6t","bigger","trex","stroop effect","no","<div style=""font-size:60px;"">+</div>","null","","","","","","",""
"","467","image-keyboard-response","205","2.0.0","308678","pu7p7uv6k6t","bigger","trex","stroop effect","no","stimuli/22-Congruent.jpg","z","","","","","left","z","true"
"","null","html-keyboard-response","206","2.0.0","309580","pu7p7uv6k6t","bigger","trex","stroop effect","no","<p>Correct!</p>","null","","","","","","",""
"","null","html-keyboard-response","207","2.0.0","310583","pu7p7uv6k6t","bigger","trex","stroop effect","no","<div style=""font-size:60px;"">+</div>","null","","","","","","",""
"","419","image-keyboard-response","208","2.0.0","311004","pu7p7uv6k6t","bigger","trex","stroop effect","no","stimuli/2-Congruent.jpg","z","","","","","left","z","true"
"","null","html-keyboard-response","209","2.0.0","311907","pu7p7uv6k6t","bigger","trex","stroop effect","no","<p>Correct!</p>","null","","","","","","",""
"","null","html-keyboard-response","210","2.0.0","312909","pu7p7uv6k6t","bigger","trex","stroop effect","no","<div style=""font-size:60px;"">+</div>","null","","","","","","",""
"","502","image-keyboard-response","211","2.0.0","313413","pu7p7uv6k6t","bigger","trex","stroop effect","no","stimuli/17-Inongruent.jpg","m","","","","","right","m","true"
"","null","html-keyboard-response","212","2.0.0","314315","pu7p7uv6k6t","bigger","trex","stroop effect","no","<p>Correct!</p>","null","","","","","","",""
"","null","html-keyboard-response","213","2.0.0","315317","pu7p7uv6k6t","bigger","trex","stroop effect","no","<div style=""font-size:60px;"">+</div>","null","","","","","","",""
"","460","image-keyboard-response","214","2.0.0","315779","pu7p7uv6k6t","bigger","trex","stroop effect","no","stimuli/14-Congruent.jpg","z","","","","","left","z","true"
"","null","html-keyboard-response","215","2.0.0","316682","pu7p7uv6k6t","bigger","trex","stroop effect","no","<p>Correct!</p>","null","","","","","","",""
"","null","html-keyboard-response","216","2.0.0","317684","pu7p7uv6k6t","bigger","trex","stroop effect","no","<div style=""font-size:60px;"">+</div>","null","","","","","","",""
"","429","image-keyboard-response","217","2.0.0","318115","pu7p7uv6k6t","bigger","trex","stroop effect","no","stimuli/31-Inongruent.jpg","m","","","","","right","m","true"
"","null","html-keyboard-response","218","2.0.0","319018","pu7p7uv6k6t","bigger","trex","stroop effect","no","<p>Correct!</p>","null","","","","","","",""
"","null","html-keyboard-response","219","2.0.0","320021","pu7p7uv6k6t","bigger","trex","stroop effect","no","<div style=""font-size:60px;"">+</div>","null","","","","","","",""
"","478","image-keyboard-response","220","2.0.0","320501","pu7p7uv6k6t","bigger","trex","stroop effect","no","stimuli/33-Inongruent.jpg","m","","","","","right","m","true"
"","null","html-keyboard-response","221","2.0.0","321403","pu7p7uv6k6t","bigger","trex","stroop effect","no","<p>Correct!</p>","null","","","","","","",""
"","null","html-keyboard-response","222","2.0.0","322406","pu7p7uv6k6t","bigger","trex","stroop effect","no","<div style=""font-size:60px;"">+</div>","null","","","","","","",""
"","428","image-keyboard-response","223","2.0.0","322836","pu7p7uv6k6t","bigger","trex","stroop effect","no","stimuli/12-Congruent.jpg","z","","","","","left","z","true"
"","null","html-keyboard-response","224","2.0.0","323739","pu7p7uv6k6t","bigger","trex","stroop effect","no","<p>Correct!</p>","null","","","","","","",""
"","null","html-keyboard-response","225","2.0.0","324742","pu7p7uv6k6t","bigger","trex","stroop effect","no","<div style=""font-size:60px;"">+</div>","null","","","","","","",""
"","2735","image-keyboard-response","226","2.0.0","327479","pu7p7uv6k6t","bigger","trex","stroop effect","no","stimuli/19-Congruent.jpg","z","","","","","left","z","true"
"","null","html-keyboard-response","227","2.0.0","328381","pu7p7uv6k6t","bigger","trex","stroop effect","no","<p>Correct!</p>","null","","","","","","",""
"","null","html-keyboard-response","228","2.0.0","329384","pu7p7uv6k6t","bigger","trex","stroop effect","no","<div style=""font-size:60px;"">+</div>","null","","","","","","",""
"","4783","image-keyboard-response","229","2.0.0","334169","pu7p7uv6k6t","bigger","trex","stroop effect","no","stimuli/24-Inongruent.jpg","m","","","","","right","m","true"
"","null","html-keyboard-response","230","2.0.0","335072","pu7p7uv6k6t","bigger","trex","stroop effect","no","<p>Correct!</p>","null","","","","","","",""
"","null","html-keyboard-response","231","2.0.0","336074","pu7p7uv6k6t","bigger","trex","stroop effect","no","<div style=""font-size:60px;"">+</div>","null","","","","","","",""
"","658","image-keyboard-response","232","2.0.0","336734","pu7p7uv6k6t","bigger","trex","stroop effect","no","stimuli/23-Congruent.jpg","z","","","","","left","z","true"
"","null","html-keyboard-response","233","2.0.0","337637","pu7p7uv6k6t","bigger","trex","stroop effect","no","<p>Correct!</p>","null","","","","","","",""
"","null","html-keyboard-response","234","2.0.0","338639","pu7p7uv6k6t","bigger","trex","stroop effect","no","<div style=""font-size:60px;"">+</div>","null","","","","","","",""
"","514","image-keyboard-response","235","2.0.0","339155","pu7p7uv6k6t","bigger","trex","stroop effect","no","stimuli/18-Inongruent.jpg","m","","","","","right","m","true"
"","null","html-keyboard-response","236","2.0.0","340058","pu7p7uv6k6t","bigger","trex","stroop effect","no","<p>Correct!</p>","null","","","","","","",""
"","null","html-keyboard-response","237","2.0.0","341060","pu7p7uv6k6t","bigger","trex","stroop effect","no","<div style=""font-size:60px;"">+</div>","null","","","","","","",""
"","2687","image-keyboard-response","238","2.0.0","343749","pu7p7uv6k6t","bigger","trex","stroop effect","no","stimuli/34-Congruent.jpg","z","","","","","left","z","true"
"","null","html-keyboard-response","239","2.0.0","344652","pu7p7uv6k6t","bigger","trex","stroop effect","no","<p>Correct!</p>","null","","","","","","",""
"","null","html-keyboard-response","240","2.0.0","345654","pu7p7uv6k6t","bigger","trex","stroop effect","no","<div style=""font-size:60px;"">+</div>","null","","","","","","",""
"","2771","image-keyboard-response","241","2.0.0","348427","pu7p7uv6k6t","bigger","trex","stroop effect","no","stimuli/16-Congruent.jpg","z","","","","","left","z","true"
"","null","html-keyboard-response","242","2.0.0","349329","pu7p7uv6k6t","bigger","trex","stroop effect","no","<p>Correct!</p>","null","","","","","","",""
"","null","html-keyboard-response","243","2.0.0","350332","pu7p7uv6k6t","bigger","trex","stroop effect","no","<div style=""font-size:60px;"">+</div>","null","","","","","","",""
"","6373","image-keyboard-response","244","2.0.0","356707","pu7p7uv6k6t","bigger","trex","stroop effect","no","stimuli/28-Inongruent.jpg","m","","","","","right","m","true"
"","null","html-keyboard-response","245","2.0.0","357610","pu7p7uv6k6t","bigger","trex","stroop effect","no","<p>Correct!</p>","null","","","","","","",""
"","null","html-keyboard-response","246","2.0.0","358612","pu7p7uv6k6t","bigger","trex","stroop effect","no","<div style=""font-size:60px;"">+</div>","null","","","","","","",""
"","409","image-keyboard-response","247","2.0.0","359024","pu7p7uv6k6t","bigger","trex","stroop effect","no","stimuli/24-Inongruent.jpg","m","","","","","right","m","true"
"","null","html-keyboard-response","248","2.0.0","359926","pu7p7uv6k6t","bigger","trex","stroop effect","no","<p>Correct!</p>","null","","","","","","",""
"","null","html-keyboard-response","249","2.0.0","360929","pu7p7uv6k6t","bigger","trex","stroop effect","no","<div style=""font-size:60px;"">+</div>","null","","","","","","",""
"","771","image-keyboard-response","250","2.0.0","361703","pu7p7uv6k6t","bigger","trex","stroop effect","no","stimuli/24-Congruent.jpg","z","","","","","left","z","true"
"","null","html-keyboard-response","251","2.0.0","362605","pu7p7uv6k6t","bigger","trex","stroop effect","no","<p>Correct!</p>","null","","","","","","",""
"","null","html-keyboard-response","252","2.0.0","363607","pu7p7uv6k6t","bigger","trex","stroop effect","no","<div style=""font-size:60px;"">+</div>","null","","","","","","",""
"","740","image-keyboard-response","253","2.0.0","364349","pu7p7uv6k6t","bigger","trex","stroop effect","no","stimuli/30-Congruent.jpg","z","","","","","left","z","true"
"","null","html-keyboard-response","254","2.0.0","365252","pu7p7uv6k6t","bigger","trex","stroop effect","no","<p>Correct!</p>","null","","","","","","",""
"","null","html-keyboard-response","255","2.0.0","366255","pu7p7uv6k6t","bigger","trex","stroop effect","no","<div style=""font-size:60px;"">+</div>","null","","","","","","",""
"","400","image-keyboard-response","256","2.0.0","366657","pu7p7uv6k6t","bigger","trex","stroop effect","no","stimuli/27-Inongruent.jpg","m","","","","","right","m","true"
"","null","html-keyboard-response","257","2.0.0","367560","pu7p7uv6k6t","bigger","trex","stroop effect","no","<p>Correct!</p>","null","","","","","","",""
"","null","html-keyboard-response","258","2.0.0","368563","pu7p7uv6k6t","bigger","trex","stroop effect","no","<div style=""font-size:60px;"">+</div>","null","","","","","","",""
"","563","image-keyboard-response","259","2.0.0","369128","pu7p7uv6k6t","bigger","trex","stroop effect","no","stimuli/20-Congruent.jpg","z","","","","","left","z","true"
"","null","html-keyboard-response","260","2.0.0","370031","pu7p7uv6k6t","bigger","trex","stroop effect","no","<p>Correct!</p>","null","","","","","","",""
"","null","html-keyboard-response","261","2.0.0","371033","pu7p7uv6k6t","bigger","trex","stroop effect","no","<div style=""font-size:60px;"">+</div>","null","","","","","","",""
"","562","image-keyboard-response","262","2.0.0","371597","pu7p7uv6k6t","bigger","trex","stroop effect","no","stimuli/28-Congruent.jpg","z","","","","","left","z","true"
"","null","html-keyboard-response","263","2.0.0","372500","pu7p7uv6k6t","bigger","trex","stroop effect","no","<p>Correct!</p>","null","","","","","","",""
"","null","html-keyboard-response","264","2.0.0","373503","pu7p7uv6k6t","bigger","trex","stroop effect","no","<div style=""font-size:60px;"">+</div>","null","","","","","","",""
"","471","image-keyboard-response","265","2.0.0","373976","pu7p7uv6k6t","bigger","trex","stroop effect","no","stimuli/8-Inongruent.jpg","m","","","","","right","m","true"
"","null","html-keyboard-response","266","2.0.0","374879","pu7p7uv6k6t","bigger","trex","stroop effect","no","<p>Correct!</p>","null","","","","","","",""
"","null","html-keyboard-response","267","2.0.0","375881","pu7p7uv6k6t","bigger","trex","stroop effect","no","<div style=""font-size:60px;"">+</div>","null","","","","","","",""
"","359","image-keyboard-response","268","2.0.0","376243","pu7p7uv6k6t","bigger","trex","stroop effect","no","stimuli/5-Congruent.jpg","z","","","","","left","z","true"
"","null","html-keyboard-response","269","2.0.0","377145","pu7p7uv6k6t","bigger","trex","stroop effect","no","<p>Correct!</p>","null","","","","","","",""
"","null","html-keyboard-response","270","2.0.0","378148","pu7p7uv6k6t","bigger","trex","stroop effect","no","<div style=""font-size:60px;"">+</div>","null","","","","","","",""
"","385","image-keyboard-response","271","2.0.0","378535","pu7p7uv6k6t","bigger","trex","stroop effect","no","stimuli/30-Inongruent.jpg","m","","","","","right","m","true"
"","null","html-keyboard-response","272","2.0.0","379438","pu7p7uv6k6t","bigger","trex","stroop effect","no","<p>Correct!</p>","null","","","","","","",""
"","null","html-keyboard-response","273","2.0.0","380441","pu7p7uv6k6t","bigger","trex","stroop effect","no","<div style=""font-size:60px;"">+</div>","null","","","","","","",""
"","452","image-keyboard-response","274","2.0.0","380895","pu7p7uv6k6t","bigger","trex","stroop effect","no","stimuli/9-Congruent.jpg","z","","","","","left","z","true"
"","null","html-keyboard-response","275","2.0.0","381798","pu7p7uv6k6t","bigger","trex","stroop effect","no","<p>Correct!</p>","null","","","","","","",""
"","null","html-keyboard-response","276","2.0.0","382801","pu7p7uv6k6t","bigger","trex","stroop effect","no","<div style=""font-size:60px;"">+</div>","null","","","","","","",""
"","725","image-keyboard-response","277","2.0.0","383528","pu7p7uv6k6t","bigger","trex","stroop effect","no","stimuli/33-Congruent.jpg","z","","","","","left","z","true"
"","null","html-keyboard-response","278","2.0.0","384431","pu7p7uv6k6t","bigger","trex","stroop effect","no","<p>Correct!</p>","null","","","","","","",""
"","null","html-keyboard-response","279","2.0.0","385433","pu7p7uv6k6t","bigger","trex","stroop effect","no","<div style=""font-size:60px;"">+</div>","null","","","","","","",""
"","380","image-keyboard-response","280","2.0.0","385815","pu7p7uv6k6t","bigger","trex","stroop effect","no","stimuli/21-Inongruent.jpg","m","","","","","right","m","true"
"","null","html-keyboard-response","281","2.0.0","386718","pu7p7uv6k6t","bigger","trex","stroop effect","no","<p>Correct!</p>","null","","","","","","",""
"","null","html-keyboard-response","282","2.0.0","387721","pu7p7uv6k6t","bigger","trex","stroop effect","no","<div style=""font-size:60px;"">+</div>","null","","","","","","",""
"","431","image-keyboard-response","283","2.0.0","388155","pu7p7uv6k6t","bigger","trex","stroop effect","no","stimuli/8-Congruent.jpg","z","","","","","left","z","true"
"","null","html-keyboard-response","284","2.0.0","389057","pu7p7uv6k6t","bigger","trex","stroop effect","no","<p>Correct!</p>","null","","","","","","",""
"","null","html-keyboard-response","285","2.0.0","390059","pu7p7uv6k6t","bigger","trex","stroop effect","no","<div style=""font-size:60px;"">+</div>","null","","","","","","",""
"","401","image-keyboard-response","286","2.0.0","390462","pu7p7uv6k6t","bigger","trex","stroop effect","no","stimuli/12-Inongruent.jpg","m","","","","","right","m","true"
"","null","html-keyboard-response","287","2.0.0","391364","pu7p7uv6k6t","bigger","trex","stroop effect","no","<p>Correct!</p>","null","","","","","","",""
"","null","html-keyboard-response","288","2.0.0","392367","pu7p7uv6k6t","bigger","trex","stroop effect","no","<div style=""font-size:60px;"">+</div>","null","","","","","","",""
"","476","image-keyboard-response","289","2.0.0","392845","pu7p7uv6k6t","bigger","trex","stroop effect","no","stimuli/29-Inongruent.jpg","m","","","","","right","m","true"
"","null","html-keyboard-response","290","2.0.0","393747","pu7p7uv6k6t","bigger","trex","stroop effect","no","<p>Correct!</p>","null","","","","","","",""
"","null","html-keyboard-response","291","2.0.0","394748","pu7p7uv6k6t","bigger","trex","stroop effect","no","<div style=""font-size:60px;"">+</div>","null","","","","","","",""
"","1260","image-keyboard-response","292","2.0.0","396010","pu7p7uv6k6t","bigger","trex","stroop effect","no","stimuli/17-Congruent.jpg","z","","","","","left","z","true"
"","null","html-keyboard-response","293","2.0.0","396912","pu7p7uv6k6t","bigger","trex","stroop effect","no","<p>Correct!</p>","null","","","","","","",""
"","null","html-keyboard-response","294","2.0.0","397915","pu7p7uv6k6t","bigger","trex","stroop effect","no","<div style=""font-size:60px;"">+</div>","null","","","","","","",""
"","1021","image-keyboard-response","295","2.0.0","398939","pu7p7uv6k6t","bigger","trex","stroop effect","no","stimuli/13-Inongruent.jpg","m","","","","","right","m","true"
"","null","html-keyboard-response","296","2.0.0","399842","pu7p7uv6k6t","bigger","trex","stroop effect","no","<p>Correct!</p>","null","","","","","","",""
"","null","html-keyboard-response","297","2.0.0","400845","pu7p7uv6k6t","bigger","trex","stroop effect","no","<div style=""font-size:60px;"">+</div>","null","","","","","","",""
"","2077","image-keyboard-response","298","2.0.0","402924","pu7p7uv6k6t","bigger","trex","stroop effect","no","stimuli/11-Congruent.jpg","z","","","","","left","z","true"
"","null","html-keyboard-response","299","2.0.0","403826","pu7p7uv6k6t","bigger","trex","stroop effect","no","<p>Correct!</p>","null","","","","","","",""
"","null","html-keyboard-response","300","2.0.0","404828","pu7p7uv6k6t","bigger","trex","stroop effect","no","<div style=""font-size:60px;"">+</div>","null","","","","","","",""
"","538","image-keyboard-response","301","2.0.0","405368","pu7p7uv6k6t","bigger","trex","stroop effect","no","stimuli/3-Inongruent.jpg","m","","","","","right","m","true"
"","null","html-keyboard-response","302","2.0.0","406269","pu7p7uv6k6t","bigger","trex","stroop effect","no","<p>Correct!</p>","null","","","","","","",""
"","null","html-keyboard-response","303","2.0.0","407272","pu7p7uv6k6t","bigger","trex","stroop effect","no","<div style=""font-size:60px;"">+</div>","null","","","","","","",""
"","987","image-keyboard-response","304","2.0.0","408261","pu7p7uv6k6t","bigger","trex","stroop effect","no","stimuli/9-Congruent.jpg","z","","","","","left","z","true"
"","null","html-keyboard-response","305","2.0.0","409164","pu7p7uv6k6t","bigger","trex","stroop effect","no","<p>Correct!</p>","null","","","","","","",""
"","null","html-keyboard-response","306","2.0.0","410167","pu7p7uv6k6t","bigger","trex","stroop effect","no","<div style=""font-size:60px;"">+</div>","null","","","","","","",""
"","405","image-keyboard-response","307","2.0.0","410574","pu7p7uv6k6t","bigger","trex","stroop effect","no","stimuli/1-Inongruent.jpg","m","","","","","right","m","true"
"","null","html-keyboard-response","308","2.0.0","411476","pu7p7uv6k6t","bigger","trex","stroop effect","no","<p>Correct!</p>","null","","","","","","",""
"","null","html-keyboard-response","309","2.0.0","412479","pu7p7uv6k6t","bigger","trex","stroop effect","no","<div style=""font-size:60px;"">+</div>","null","","","","","","",""
"","1395","image-keyboard-response","310","2.0.0","413876","pu7p7uv6k6t","bigger","trex","stroop effect","no","stimuli/16-Congruent.jpg","z","","","","","left","z","true"
"","null","html-keyboard-response","311","2.0.0","414778","pu7p7uv6k6t","bigger","trex","stroop effect","no","<p>Correct!</p>","null","","","","","","",""
"","null","html-keyboard-response","312","2.0.0","415780","pu7p7uv6k6t","bigger","trex","stroop effect","no","<div style=""font-size:60px;"">+</div>","null","","","","","","",""
"","637","image-keyboard-response","313","2.0.0","416419","pu7p7uv6k6t","bigger","trex","stroop effect","no","stimuli/32-Congruent.jpg","z","","","","","left","z","true"
"","null","html-keyboard-response","314","2.0.0","417321","pu7p7uv6k6t","bigger","trex","stroop effect","no","<p>Correct!</p>","null","","","","","","",""
"","null","html-keyboard-response","315","2.0.0","418324","pu7p7uv6k6t","bigger","trex","stroop effect","no","<div style=""font-size:60px;"">+</div>","null","","","","","","",""
"","441","image-keyboard-response","316","2.0.0","418767","pu7p7uv6k6t","bigger","trex","stroop effect","no","stimuli/17-Inongruent.jpg","m","","","","","right","m","true"
"","null","html-keyboard-response","317","2.0.0","419670","pu7p7uv6k6t","bigger","trex","stroop effect","no","<p>Correct!</p>","null","","","","","","",""
"","null","html-keyboard-response","318","2.0.0","420672","pu7p7uv6k6t","bigger","trex","stroop effect","no","<div style=""font-size:60px;"">+</div>","null","","","","","","",""
"","680","image-keyboard-response","319","2.0.0","421355","pu7p7uv6k6t","bigger","trex","stroop effect","no","stimuli/13-Inongruent.jpg","m","","","","","right","m","true"
"","null","html-keyboard-response","320","2.0.0","422257","pu7p7uv6k6t","bigger","trex","stroop effect","no","<p>Correct!</p>","null","","","","","","",""
"","null","html-keyboard-response","321","2.0.0","423259","pu7p7uv6k6t","bigger","trex","stroop effect","no","<div style=""font-size:60px;"">+</div>","null","","","","","","",""
"","2240","image-keyboard-response","322","2.0.0","425501","pu7p7uv6k6t","bigger","trex","stroop effect","no","stimuli/36-Congruent.jpg","z","","","","","left","z","true"
"","null","html-keyboard-response","323","2.0.0","426403","pu7p7uv6k6t","bigger","trex","stroop effect","no","<p>Correct!</p>","null","","","","","","",""
"","null","html-keyboard-response","324","2.0.0","427405","pu7p7uv6k6t","bigger","trex","stroop effect","no","<div style=""font-size:60px;"">+</div>","null","","","","","","",""
"","726","image-keyboard-response","325","2.0.0","428133","pu7p7uv6k6t","bigger","trex","stroop effect","no","stimuli/28-Congruent.jpg","z","","","","","left","z","true"
"","null","html-keyboard-response","326","2.0.0","429035","pu7p7uv6k6t","bigger","trex","stroop effect","no","<p>Correct!</p>","null","","","","","","",""
"","null","html-keyboard-response","327","2.0.0","430037","pu7p7uv6k6t","bigger","trex","stroop effect","no","<div style=""font-size:60px;"">+</div>","null","","","","","","",""
"","987","image-keyboard-response","328","2.0.0","431026","pu7p7uv6k6t","bigger","trex","stroop effect","no","stimuli/30-Congruent.jpg","z","","","","","left","z","true"
"","null","html-keyboard-response","329","2.0.0","431928","pu7p7uv6k6t","bigger","trex","stroop effect","no","<p>Correct!</p>","null","","","","","","",""
"","null","html-keyboard-response","330","2.0.0","432930","pu7p7uv6k6t","bigger","trex","stroop effect","no","<div style=""font-size:60px;"">+</div>","null","","","","","","",""
"","845","image-keyboard-response","331","2.0.0","433777","pu7p7uv6k6t","bigger","trex","stroop effect","no","stimuli/2-Inongruent.jpg","m","","","","","right","m","true"
"","null","html-keyboard-response","332","2.0.0","434679","pu7p7uv6k6t","bigger","trex","stroop effect","no","<p>Correct!</p>","null","","","","","","",""
"","null","html-keyboard-response","333","2.0.0","435681","pu7p7uv6k6t","bigger","trex","stroop effect","no","<div style=""font-size:60px;"">+</div>","null","","","","","","",""
"","556","image-keyboard-response","334","2.0.0","436239","pu7p7uv6k6t","bigger","trex","stroop effect","no","stimuli/20-Inongruent.jpg","m","","","","","right","m","true"
"","null","html-keyboard-response","335","2.0.0","437141","pu7p7uv6k6t","bigger","trex","stroop effect","no","<p>Correct!</p>","null","","","","","","",""
"","null","html-keyboard-response","336","2.0.0","438144","pu7p7uv6k6t","bigger","trex","stroop effect","no","<div style=""font-size:60px;"">+</div>","null","","","","","","",""
"","3564","image-keyboard-response","337","2.0.0","441710","pu7p7uv6k6t","bigger","trex","stroop effect","no","stimuli/19-Inongruent.jpg","m","","","","","right","m","true"
"","null","html-keyboard-response","338","2.0.0","442612","pu7p7uv6k6t","bigger","trex","stroop effect","no","<p>Correct!</p>","null","","","","","","",""
"","null","html-keyboard-response","339","2.0.0","443615","pu7p7uv6k6t","bigger","trex","stroop effect","no","<div style=""font-size:60px;"">+</div>","null","","","","","","",""
"","1538","image-keyboard-response","340","2.0.0","445155","pu7p7uv6k6t","bigger","trex","stroop effect","no","stimuli/18-Congruent.jpg","z","","","","","left","z","true"
"","null","html-keyboard-response","341","2.0.0","446057","pu7p7uv6k6t","bigger","trex","stroop effect","no","<p>Correct!</p>","null","","","","","","",""
"","null","html-keyboard-response","342","2.0.0","447059","pu7p7uv6k6t","bigger","trex","stroop effect","no","<div style=""font-size:60px;"">+</div>","null","","","","","","",""
"","3005","image-keyboard-response","343","2.0.0","450066","pu7p7uv6k6t","bigger","trex","stroop effect","no","stimuli/20-Congruent.jpg","z","","","","","left","z","true"
"","null","html-keyboard-response","344","2.0.0","450969","pu7p7uv6k6t","bigger","trex","stroop effect","no","<p>Correct!</p>","null","","","","","","",""
"","null","html-keyboard-response","345","2.0.0","451973","pu7p7uv6k6t","bigger","trex","stroop effect","no","<div style=""font-size:60px;"">+</div>","null","","","","","","",""
"","664","image-keyboard-response","346","2.0.0","452638","pu7p7uv6k6t","bigger","trex","stroop effect","no","stimuli/3-Congruent.jpg","z","","","","","left","z","true"
"","null","html-keyboard-response","347","2.0.0","453541","pu7p7uv6k6t","bigger","trex","stroop effect","no","<p>Correct!</p>","null","","","","","","",""
"","null","html-keyboard-response","348","2.0.0","454543","pu7p7uv6k6t","bigger","trex","stroop effect","no","<div style=""font-size:60px;"">+</div>","null","","","","","","",""
"","1776","image-keyboard-response","349","2.0.0","456321","pu7p7uv6k6t","bigger","trex","stroop effect","no","stimuli/36-Inongruent.jpg","m","","","","","right","m","true"
"","null","html-keyboard-response","350","2.0.0","457224","pu7p7uv6k6t","bigger","trex","stroop effect","no","<p>Correct!</p>","null","","","","","","",""
"","null","html-keyboard-response","351","2.0.0","458227","pu7p7uv6k6t","bigger","trex","stroop effect","no","<div style=""font-size:60px;"">+</div>","null","","","","","","",""
"","843","image-keyboard-response","352","2.0.0","459071","pu7p7uv6k6t","bigger","trex","stroop effect","no","stimuli/32-Inongruent.jpg","m","","","","","right","m","true"
"","null","html-keyboard-response","353","2.0.0","459974","pu7p7uv6k6t","bigger","trex","stroop effect","no","<p>Correct!</p>","null","","","","","","",""
"","null","html-keyboard-response","354","2.0.0","460976","pu7p7uv6k6t","bigger","trex","stroop effect","no","<div style=""font-size:60px;"">+</div>","null","","","","","","",""
"","2692","image-keyboard-response","355","2.0.0","463671","pu7p7uv6k6t","bigger","trex","stroop effect","no","stimuli/34-Inongruent.jpg","m","","","","","right","m","true"
"","null","html-keyboard-response","356","2.0.0","464573","pu7p7uv6k6t","bigger","trex","stroop effect","no","<p>Correct!</p>","null","","","","","","",""
"","null","html-keyboard-response","357","2.0.0","465576","pu7p7uv6k6t","bigger","trex","stroop effect","no","<div style=""font-size:60px;"">+</div>","null","","","","","","",""
"","754","image-keyboard-response","358","2.0.0","466332","pu7p7uv6k6t","bigger","trex","stroop effect","no","stimuli/35-Congruent.jpg","z","","","","","left","z","true"
"","null","html-keyboard-response","359","2.0.0","467235","pu7p7uv6k6t","bigger","trex","stroop effect","no","<p>Correct!</p>","null","","","","","","",""
"","null","html-keyboard-response","360","2.0.0","468238","pu7p7uv6k6t","bigger","trex","stroop effect","no","<div style=""font-size:60px;"">+</div>","null","","","","","","",""
"","582","image-keyboard-response","361","2.0.0","468822","pu7p7uv6k6t","bigger","trex","stroop effect","no","stimuli/14-Inongruent.jpg","m","","","","","right","m","true"
"","null","html-keyboard-response","362","2.0.0","469724","pu7p7uv6k6t","bigger","trex","stroop effect","no","<p>Correct!</p>","null","","","","","","",""
"","null","html-keyboard-response","363","2.0.0","470727","pu7p7uv6k6t","bigger","trex","stroop effect","no","<div style=""font-size:60px;"">+</div>","null","","","","","","",""
"","478","image-keyboard-response","364","2.0.0","471207","pu7p7uv6k6t","bigger","trex","stroop effect","no","stimuli/19-Inongruent.jpg","m","","","","","right","m","true"
"","null","html-keyboard-response","365","2.0.0","472110","pu7p7uv6k6t","bigger","trex","stroop effect","no","<p>Correct!</p>","null","","","","","","",""
"","null","html-keyboard-response","366","2.0.0","473113","pu7p7uv6k6t","bigger","trex","stroop effect","no","<div style=""font-size:60px;"">+</div>","null","","","","","","",""
"","2875","image-keyboard-response","367","2.0.0","475990","pu7p7uv6k6t","bigger","trex","stroop effect","no","stimuli/23-Inongruent.jpg","m","","","","","right","m","true"
"","null","html-keyboard-response","368","2.0.0","476893","pu7p7uv6k6t","bigger","trex","stroop effect","no","<p>Correct!</p>","null","","","","","","",""
"","null","html-keyboard-response","369","2.0.0","477896","pu7p7uv6k6t","bigger","trex","stroop effect","no","<div style=""font-size:60px;"">+</div>","null","","","","","","",""
"","848","image-keyboard-response","370","2.0.0","478745","pu7p7uv6k6t","bigger","trex","stroop effect","no","stimuli/27-Congruent.jpg","z","","","","","left","z","true"
"","null","html-keyboard-response","371","2.0.0","479648","pu7p7uv6k6t","bigger","trex","stroop effect","no","<p>Correct!</p>","null","","","","","","",""
"","null","html-keyboard-response","372","2.0.0","480650","pu7p7uv6k6t","bigger","trex","stroop effect","no","<div style=""font-size:60px;"">+</div>","null","","","","","","",""
"","419","image-keyboard-response","373","2.0.0","481071","pu7p7uv6k6t","bigger","trex","stroop effect","no","stimuli/26-Inongruent.jpg","m","","","","","right","m","true"
"","null","html-keyboard-response","374","2.0.0","481973","pu7p7uv6k6t","bigger","trex","stroop effect","no","<p>Correct!</p>","null","","","","","","",""
"","null","html-keyboard-response","375","2.0.0","482976","pu7p7uv6k6t","bigger","trex","stroop effect","no","<div style=""font-size:60px;"">+</div>","null","","","","","","",""
"","2185","image-keyboard-response","376","2.0.0","485164","pu7p7uv6k6t","bigger","trex","stroop effect","no","stimuli/29-Inongruent.jpg","m","","","","","right","m","true"
"","null","html-keyboard-response","377","2.0.0","486067","pu7p7uv6k6t","bigger","trex","stroop effect","no","<p>Correct!</p>","null","","","","","","",""
"","null","html-keyboard-response","378","2.0.0","487069","pu7p7uv6k6t","bigger","trex","stroop effect","no","<div style=""font-size:60px;"">+</div>","null","","","","","","",""
"","616","image-keyboard-response","379","2.0.0","487687","pu7p7uv6k6t","bigger","trex","stroop effect","no","stimuli/29-Congruent.jpg","z","","","","","left","z","true"
"","null","html-keyboard-response","380","2.0.0","488590","pu7p7uv6k6t","bigger","trex","stroop effect","no","<p>Correct!</p>","null","","","","","","",""
"","null","html-keyboard-response","381","2.0.0","489592","pu7p7uv6k6t","bigger","trex","stroop effect","no","<div style=""font-size:60px;"">+</div>","null","","","","","","",""
"","5875","image-keyboard-response","382","2.0.0","495468","pu7p7uv6k6t","bigger","trex","stroop effect","no","stimuli/9-Inongruent.jpg","m","","","","","right","m","true"
"","null","html-keyboard-response","383","2.0.0","496371","pu7p7uv6k6t","bigger","trex","stroop effect","no","<p>Correct!</p>","null","","","","","","",""
"","null","html-keyboard-response","384","2.0.0","497374","pu7p7uv6k6t","bigger","trex","stroop effect","no","<div style=""font-size:60px;"">+</div>","null","","","","","","",""
"","15501","image-keyboard-response","385","2.0.0","512876","pu7p7uv6k6t","bigger","trex","stroop effect","no","stimuli/21-Inongruent.jpg","m","","","","","right","m","true"
"","null","html-keyboard-response","386","2.0.0","513779","pu7p7uv6k6t","bigger","trex","stroop effect","no","<p>Correct!</p>","null","","","","","","",""
"","null","html-keyboard-response","387","2.0.0","514782","pu7p7uv6k6t","bigger","trex","stroop effect","no","<div style=""font-size:60px;"">+</div>","null","","","","","","",""
"","5275","image-keyboard-response","388","2.0.0","520058","pu7p7uv6k6t","bigger","trex","stroop effect","no","stimuli/25-Congruent.jpg","z","","","","","left","z","true"
"","null","html-keyboard-response","389","2.0.0","520961","pu7p7uv6k6t","bigger","trex","stroop effect","no","<p>Correct!</p>","null","","","","","","",""
"","null","html-keyboard-response","390","2.0.0","521963","pu7p7uv6k6t","bigger","trex","stroop effect","no","<div style=""font-size:60px;"">+</div>","null","","","","","","",""
"","1285","image-keyboard-response","391","2.0.0","523251","pu7p7uv6k6t","bigger","trex","stroop effect","no","stimuli/16-Inongruent.jpg","m","","","","","right","m","true"
"","null","html-keyboard-response","392","2.0.0","524154","pu7p7uv6k6t","bigger","trex","stroop effect","no","<p>Correct!</p>","null","","","","","","",""
"","null","html-keyboard-response","393","2.0.0","525156","pu7p7uv6k6t","bigger","trex","stroop effect","no","<div style=""font-size:60px;"">+</div>","null","","","","","","",""
"","538","image-keyboard-response","394","2.0.0","525696","pu7p7uv6k6t","bigger","trex","stroop effect","no","stimuli/22-Inongruent.jpg","m","","","","","right","m","true"
"","null","html-keyboard-response","395","2.0.0","526599","pu7p7uv6k6t","bigger","trex","stroop effect","no","<p>Correct!</p>","null","","","","","","",""
"","null","html-keyboard-response","396","2.0.0","527601","pu7p7uv6k6t","bigger","trex","stroop effect","no","<div style=""font-size:60px;"">+</div>","null","","","","","","",""
"","721","image-keyboard-response","397","2.0.0","528324","pu7p7uv6k6t","bigger","trex","stroop effect","no","stimuli/21-Congruent.jpg","z","","","","","left","z","true"
"","null","html-keyboard-response","398","2.0.0","529226","pu7p7uv6k6t","bigger","trex","stroop effect","no","<p>Correct!</p>","null","","","","","","",""
"","null","html-keyboard-response","399","2.0.0","530229","pu7p7uv6k6t","bigger","trex","stroop effect","no","<div style=""font-size:60px;"">+</div>","null","","","","","","",""
"","1773","image-keyboard-response","400","2.0.0","532004","pu7p7uv6k6t","bigger","trex","stroop effect","no","stimuli/15-Inongruent.jpg","m","","","","","right","m","true"
"","null","html-keyboard-response","401","2.0.0","532906","pu7p7uv6k6t","bigger","trex","stroop effect","no","<p>Correct!</p>","null","","","","","","",""
"","null","html-keyboard-response","402","2.0.0","533909","pu7p7uv6k6t","bigger","trex","stroop effect","no","<div style=""font-size:60px;"">+</div>","null","","","","","","",""
"","2612","image-keyboard-response","403","2.0.0","536523","pu7p7uv6k6t","bigger","trex","stroop effect","no","stimuli/33-Congruent.jpg","z","","","","","left","z","true"
"","null","html-keyboard-response","404","2.0.0","537425","pu7p7uv6k6t","bigger","trex","stroop effect","no","<p>Correct!</p>","null","","","","","","",""
"","null","html-keyboard-response","405","2.0.0","538428","pu7p7uv6k6t","bigger","trex","stroop effect","no","<div style=""font-size:60px;"">+</div>","null","","","","","","",""
"","2914","image-keyboard-response","406","2.0.0","541345","pu7p7uv6k6t","bigger","trex","stroop effect","no","stimuli/13-Congruent.jpg","z","","","","","left","z","true"
"","null","html-keyboard-response","407","2.0.0","542248","pu7p7uv6k6t","bigger","trex","stroop effect","no","<p>Correct!</p>","null","","","","","","",""
"","null","html-keyboard-response","408","2.0.0","543251","pu7p7uv6k6t","bigger","trex","stroop effect","no","<div style=""font-size:60px;"">+</div>","null","","","","","","",""
"","5581","image-keyboard-response","409","2.0.0","548833","pu7p7uv6k6t","bigger","trex","stroop effect","no","stimuli/27-Inongruent.jpg","m","","","","","right","m","true"
"","null","html-keyboard-response","410","2.0.0","549736","pu7p7uv6k6t","bigger","trex","stroop effect","no","<p>Correct!</p>","null","","","","","","",""
"","null","html-keyboard-response","411","2.0.0","550739","pu7p7uv6k6t","bigger","trex","stroop effect","no","<div style=""font-size:60px;"">+</div>","null","","","","","","",""
"","4450","image-keyboard-response","412","2.0.0","555191","pu7p7uv6k6t","bigger","trex","stroop effect","no","stimuli/15-Congruent.jpg","z","","","","","left","z","true"
"","null","html-keyboard-response","413","2.0.0","556094","pu7p7uv6k6t","bigger","trex","stroop effect","no","<p>Correct!</p>","null","","","","","","",""
"","null","html-keyboard-response","414","2.0.0","557097","pu7p7uv6k6t","bigger","trex","stroop effect","no","<div style=""font-size:60px;"">+</div>","null","","","","","","",""
"","538","image-keyboard-response","415","2.0.0","557637","pu7p7uv6k6t","bigger","trex","stroop effect","no","stimuli/6-Inongruent.jpg","m","","","","","right","m","true"
"","null","html-keyboard-response","416","2.0.0","558540","pu7p7uv6k6t","bigger","trex","stroop effect","no","<p>Correct!</p>","null","","","","","","",""
"","null","html-keyboard-response","417","2.0.0","559542","pu7p7uv6k6t","bigger","trex","stroop effect","no","<div style=""font-size:60px;"">+</div>","null","","","","","","",""
"","748","image-keyboard-response","418","2.0.0","560292","pu7p7uv6k6t","bigger","trex","stroop effect","no","stimuli/8-Inongruent.jpg","m","","","","","right","m","true"
"","null","html-keyboard-response","419","2.0.0","561194","pu7p7uv6k6t","bigger","trex","stroop effect","no","<p>Correct!</p>","null","","","","","","",""
"","null","html-keyboard-response","420","2.0.0","562196","pu7p7uv6k6t","bigger","trex","stroop effect","no","<div style=""font-size:60px;"">+</div>","null","","","","","","",""
"","2227","image-keyboard-response","421","2.0.0","564425","pu7p7uv6k6t","bigger","trex","stroop effect","no","stimuli/2-Inongruent.jpg","m","","","","","right","m","true"
"","null","html-keyboard-response","422","2.0.0","565327","pu7p7uv6k6t","bigger","trex","stroop effect","no","<p>Correct!</p>","null","","","","","","",""
"","null","html-keyboard-response","423","2.0.0","566329","pu7p7uv6k6t","bigger","trex","stroop effect","no","<div style=""font-size:60px;"">+</div>","null","","","","","","",""
"","485","image-keyboard-response","424","2.0.0","566816","pu7p7uv6k6t","bigger","trex","stroop effect","no","stimuli/13-Congruent.jpg","z","","","","","left","z","true"
"","null","html-keyboard-response","425","2.0.0","567719","pu7p7uv6k6t","bigger","trex","stroop effect","no","<p>Correct!</p>","null","","","","","","",""
"","null","html-keyboard-response","426","2.0.0","568722","pu7p7uv6k6t","bigger","trex","stroop effect","no","<div style=""font-size:60px;"">+</div>","null","","","","","","",""
"","545","image-keyboard-response","427","2.0.0","569269","pu7p7uv6k6t","bigger","trex","stroop effect","no","stimuli/12-Inongruent.jpg","m","","","","","right","m","true"
"","null","html-keyboard-response","428","2.0.0","570171","pu7p7uv6k6t","bigger","trex","stroop effect","no","<p>Correct!</p>","null","","","","","","",""
"","null","html-keyboard-response","429","2.0.0","571174","pu7p7uv6k6t","bigger","trex","stroop effect","no","<div style=""font-size:60px;"">+</div>","null","","","","","","",""
"","388","image-keyboard-response","430","2.0.0","571564","pu7p7uv6k6t","bigger","trex","stroop effect","no","stimuli/30-Inongruent.jpg","m","","","","","right","m","true"
"","null","html-keyboard-response","431","2.0.0","572467","pu7p7uv6k6t","bigger","trex","stroop effect","no","<p>Correct!</p>","null","","","","","","",""
"","null","html-keyboard-response","432","2.0.0","573470","pu7p7uv6k6t","bigger","trex","stroop effect","no","<div style=""font-size:60px;"">+</div>","null","","","","","","",""
"","469","image-keyboard-response","433","2.0.0","573941","pu7p7uv6k6t","bigger","trex","stroop effect","no","stimuli/26-Congruent.jpg","z","","","","","left","z","true"
"","null","html-keyboard-response","434","2.0.0","574843","pu7p7uv6k6t","bigger","trex","stroop effect","no","<p>Correct!</p>","null","","","","","","",""
"","null","html-keyboard-response","435","2.0.0","575846","pu7p7uv6k6t","bigger","trex","stroop effect","no","<div style=""font-size:60px;"">+</div>","null","","","","","","",""
"","681","image-keyboard-response","436","2.0.0","576529","pu7p7uv6k6t","bigger","trex","stroop effect","no","stimuli/19-Congruent.jpg","z","","","","","left","z","true"
"","null","html-keyboard-response","437","2.0.0","577432","pu7p7uv6k6t","bigger","trex","stroop effect","no","<p>Correct!</p>","null","","","","","","",""
"","12495","html-keyboard-response","438","2.0.0","589928","pu7p7uv6k6t","bigger","trex","stroop effect","no","<p>You have completed the experiment!</p>
              <p>Your accuracy was: 99.30555555555556%.</p>
              <p>Thank you for participating.</p>
              <p>Press any key to continue.</p>"," ","","","","","","",""
"","5674","survey-text","439","2.0.0","595605","pu7p7uv6k6t","bigger","trex","stroop effect","no","","{""participant_thoughts"":""stroop effect""}","","","","","","",""
"","6981","survey-text","440","2.0.0","602588","pu7p7uv6k6t","bigger","trex","stroop effect","no","","{""participant_difficulties"":""no""}","","","","","","",""
"","4512","html-keyboard-response","441","2.0.0","607101","pu7p7uv6k6t","bigger","trex","stroop effect","no","<p>The purpose of this experiment is to determine if the real world size of a familiar object is automatically processed when viewed.</p><p>Thank you for participating!</p>"," ","","","","","","",""
