"success","rt","trial_type","trial_index","plugin_version","time_elapsed","random_id","condition","participant","participant_thoughts","participant_difficulties","stimulus","response","timeout","failed_images","failed_audio","failed_video","correct_response","correct_response_key","correct"
"true","6964","fullscreen","0","null","7977","puza1jfd4px","bigger","axolotl","to test whether inconcruent and congurnet affected reaction times. ","no","","","","","","","","",""
"","1320","html-keyboard-response","1","2.0.0","9298","puza1jfd4px","bigger","axolotl","to test whether inconcruent and congurnet affected reaction times. ","no","Welcome to the Size Stroop experiment. Press any key to begin."," ","","","","","","",""
"","643","html-keyboard-response","2","2.0.0","9942","puza1jfd4px","bigger","axolotl","to test whether inconcruent and congurnet affected reaction times. ","no","This trial will be in fullscreen mode."," ","","","","","","",""
"","1540","survey-text","3","2.0.0","11486","puza1jfd4px","bigger","axolotl","to test whether inconcruent and congurnet affected reaction times. ","no","","{""participant_id"":""axolotl""}","","","","","","",""
"","5555","html-keyboard-response","4","2.0.0","17041","puza1jfd4px","bigger","axolotl","to test whether inconcruent and congurnet affected reaction times. ","no","<p>In this experiment, two images will appear on the screen. Identify the <strong>larger</strong> images.</p>
              <p>If the image on the left is larger, press ""z"". If the image on the right is larger, press ""m"".</p>
              <p>Press any key to begin.</p>"," ","","","","","","",""
"true","","preload","5","2.0.0","18444","puza1jfd4px","bigger","axolotl","to test whether inconcruent and congurnet affected reaction times. ","no","","","false","[]","[]","[]","","",""
"","null","html-keyboard-response","6","2.0.0","19454","puza1jfd4px","bigger","axolotl","to test whether inconcruent and congurnet affected reaction times. ","no","<div style=""font-size:60px;"">+</div>","null","","","","","","",""
"","606","image-keyboard-response","7","2.0.0","20063","puza1jfd4px","bigger","axolotl","to test whether inconcruent and congurnet affected reaction times. ","no","stimuli/8-Congruent.jpg","z","","","","","left","z","true"
"","null","html-keyboard-response","8","2.0.0","20975","puza1jfd4px","bigger","axolotl","to test whether inconcruent and congurnet affected reaction times. ","no","<p>Correct!</p>","null","","","","","","",""
"","null","html-keyboard-response","9","2.0.0","21987","puza1jfd4px","bigger","axolotl","to test whether inconcruent and congurnet affected reaction times. ","no","<div style=""font-size:60px;"">+</div>","null","","","","","","",""
"","736","image-keyboard-response","10","2.0.0","22725","puza1jfd4px","bigger","axolotl","to test whether inconcruent and congurnet affected reaction times. ","no","stimuli/23-Congruent.jpg","z","","","","","left","z","true"
"","null","html-keyboard-response","11","2.0.0","23637","puza1jfd4px","bigger","axolotl","to test whether inconcruent and congurnet affected reaction times. ","no","<p>Correct!</p>","null","","","","","","",""
"","null","html-keyboard-response","12","2.0.0","24644","puza1jfd4px","bigger","axolotl","to test whether inconcruent and congurnet affected reaction times. ","no","<div style=""font-size:60px;"">+</div>","null","","","","","","",""
"","782","image-keyboard-response","13","2.0.0","25427","puza1jfd4px","bigger","axolotl","to test whether inconcruent and congurnet affected reaction times. ","no","stimuli/22-Inongruent.jpg","z","","","","","right","m","false"
"","null","html-keyboard-response","14","2.0.0","30432","puza1jfd4px","bigger","axolotl","to test whether inconcruent and congurnet affected reaction times. ","no","<p>Incorrect.</p><p>Remember to select the <b>bigger</b> image.</p><p>Continuing in 5 seconds...</p>","null","","","","","","",""
"","null","html-keyboard-response","15","2.0.0","31441","puza1jfd4px","bigger","axolotl","to test whether inconcruent and congurnet affected reaction times. ","no","<div style=""font-size:60px;"">+</div>","null","","","","","","",""
"","937","image-keyboard-response","16","2.0.0","32379","puza1jfd4px","bigger","axolotl","to test whether inconcruent and congurnet affected reaction times. ","no","stimuli/27-Inongruent.jpg","m","","","","","right","m","true"
"","null","html-keyboard-response","17","2.0.0","33283","puza1jfd4px","bigger","axolotl","to test whether inconcruent and congurnet affected reaction times. ","no","<p>Correct!</p>","null","","","","","","",""
"","null","html-keyboard-response","18","2.0.0","34292","puza1jfd4px","bigger","axolotl","to test whether inconcruent and congurnet affected reaction times. ","no","<div style=""font-size:60px;"">+</div>","null","","","","","","",""
"","527","image-keyboard-response","19","2.0.0","34820","puza1jfd4px","bigger","axolotl","to test whether inconcruent and congurnet affected reaction times. ","no","stimuli/12-Congruent.jpg","z","","","","","left","z","true"
"","null","html-keyboard-response","20","2.0.0","35727","puza1jfd4px","bigger","axolotl","to test whether inconcruent and congurnet affected reaction times. ","no","<p>Correct!</p>","null","","","","","","",""
"","null","html-keyboard-response","21","2.0.0","36742","puza1jfd4px","bigger","axolotl","to test whether inconcruent and congurnet affected reaction times. ","no","<div style=""font-size:60px;"">+</div>","null","","","","","","",""
"","428","image-keyboard-response","22","2.0.0","37171","puza1jfd4px","bigger","axolotl","to test whether inconcruent and congurnet affected reaction times. ","no","stimuli/14-Inongruent.jpg","m","","","","","right","m","true"
"","null","html-keyboard-response","23","2.0.0","38087","puza1jfd4px","bigger","axolotl","to test whether inconcruent and congurnet affected reaction times. ","no","<p>Correct!</p>","null","","","","","","",""
"","null","html-keyboard-response","24","2.0.0","39093","puza1jfd4px","bigger","axolotl","to test whether inconcruent and congurnet affected reaction times. ","no","<div style=""font-size:60px;"">+</div>","null","","","","","","",""
"","351","image-keyboard-response","25","2.0.0","39446","puza1jfd4px","bigger","axolotl","to test whether inconcruent and congurnet affected reaction times. ","no","stimuli/26-Congruent.jpg","z","","","","","left","z","true"
"","null","html-keyboard-response","26","2.0.0","40363","puza1jfd4px","bigger","axolotl","to test whether inconcruent and congurnet affected reaction times. ","no","<p>Correct!</p>","null","","","","","","",""
"","null","html-keyboard-response","27","2.0.0","41365","puza1jfd4px","bigger","axolotl","to test whether inconcruent and congurnet affected reaction times. ","no","<div style=""font-size:60px;"">+</div>","null","","","","","","",""
"","688","image-keyboard-response","28","2.0.0","42054","puza1jfd4px","bigger","axolotl","to test whether inconcruent and congurnet affected reaction times. ","no","stimuli/35-Congruent.jpg","z","","","","","left","z","true"
"","null","html-keyboard-response","29","2.0.0","42964","puza1jfd4px","bigger","axolotl","to test whether inconcruent and congurnet affected reaction times. ","no","<p>Correct!</p>","null","","","","","","",""
"","null","html-keyboard-response","30","2.0.0","43972","puza1jfd4px","bigger","axolotl","to test whether inconcruent and congurnet affected reaction times. ","no","<div style=""font-size:60px;"">+</div>","null","","","","","","",""
"","406","image-keyboard-response","31","2.0.0","44379","puza1jfd4px","bigger","axolotl","to test whether inconcruent and congurnet affected reaction times. ","no","stimuli/35-Congruent.jpg","z","","","","","left","z","true"
"","null","html-keyboard-response","32","2.0.0","45289","puza1jfd4px","bigger","axolotl","to test whether inconcruent and congurnet affected reaction times. ","no","<p>Correct!</p>","null","","","","","","",""
"","null","html-keyboard-response","33","2.0.0","46295","puza1jfd4px","bigger","axolotl","to test whether inconcruent and congurnet affected reaction times. ","no","<div style=""font-size:60px;"">+</div>","null","","","","","","",""
"","459","image-keyboard-response","34","2.0.0","46755","puza1jfd4px","bigger","axolotl","to test whether inconcruent and congurnet affected reaction times. ","no","stimuli/7-Congruent.jpg","z","","","","","left","z","true"
"","null","html-keyboard-response","35","2.0.0","47669","puza1jfd4px","bigger","axolotl","to test whether inconcruent and congurnet affected reaction times. ","no","<p>Correct!</p>","null","","","","","","",""
"","null","html-keyboard-response","36","2.0.0","48680","puza1jfd4px","bigger","axolotl","to test whether inconcruent and congurnet affected reaction times. ","no","<div style=""font-size:60px;"">+</div>","null","","","","","","",""
"","459","image-keyboard-response","37","2.0.0","49140","puza1jfd4px","bigger","axolotl","to test whether inconcruent and congurnet affected reaction times. ","no","stimuli/36-Inongruent.jpg","m","","","","","right","m","true"
"","null","html-keyboard-response","38","2.0.0","50051","puza1jfd4px","bigger","axolotl","to test whether inconcruent and congurnet affected reaction times. ","no","<p>Correct!</p>","null","","","","","","",""
"","null","html-keyboard-response","39","2.0.0","51059","puza1jfd4px","bigger","axolotl","to test whether inconcruent and congurnet affected reaction times. ","no","<div style=""font-size:60px;"">+</div>","null","","","","","","",""
"","370","image-keyboard-response","40","2.0.0","51431","puza1jfd4px","bigger","axolotl","to test whether inconcruent and congurnet affected reaction times. ","no","stimuli/20-Congruent.jpg","z","","","","","left","z","true"
"","null","html-keyboard-response","41","2.0.0","52337","puza1jfd4px","bigger","axolotl","to test whether inconcruent and congurnet affected reaction times. ","no","<p>Correct!</p>","null","","","","","","",""
"","null","html-keyboard-response","42","2.0.0","53339","puza1jfd4px","bigger","axolotl","to test whether inconcruent and congurnet affected reaction times. ","no","<div style=""font-size:60px;"">+</div>","null","","","","","","",""
"","380","image-keyboard-response","43","2.0.0","53720","puza1jfd4px","bigger","axolotl","to test whether inconcruent and congurnet affected reaction times. ","no","stimuli/8-Congruent.jpg","z","","","","","left","z","true"
"","null","html-keyboard-response","44","2.0.0","54621","puza1jfd4px","bigger","axolotl","to test whether inconcruent and congurnet affected reaction times. ","no","<p>Correct!</p>","null","","","","","","",""
"","null","html-keyboard-response","45","2.0.0","55624","puza1jfd4px","bigger","axolotl","to test whether inconcruent and congurnet affected reaction times. ","no","<div style=""font-size:60px;"">+</div>","null","","","","","","",""
"","545","image-keyboard-response","46","2.0.0","56171","puza1jfd4px","bigger","axolotl","to test whether inconcruent and congurnet affected reaction times. ","no","stimuli/16-Inongruent.jpg","m","","","","","right","m","true"
"","null","html-keyboard-response","47","2.0.0","57075","puza1jfd4px","bigger","axolotl","to test whether inconcruent and congurnet affected reaction times. ","no","<p>Correct!</p>","null","","","","","","",""
"","null","html-keyboard-response","48","2.0.0","58079","puza1jfd4px","bigger","axolotl","to test whether inconcruent and congurnet affected reaction times. ","no","<div style=""font-size:60px;"">+</div>","null","","","","","","",""
"","467","image-keyboard-response","49","2.0.0","58548","puza1jfd4px","bigger","axolotl","to test whether inconcruent and congurnet affected reaction times. ","no","stimuli/11-Congruent.jpg","z","","","","","left","z","true"
"","null","html-keyboard-response","50","2.0.0","59468","puza1jfd4px","bigger","axolotl","to test whether inconcruent and congurnet affected reaction times. ","no","<p>Correct!</p>","null","","","","","","",""
"","null","html-keyboard-response","51","2.0.0","60481","puza1jfd4px","bigger","axolotl","to test whether inconcruent and congurnet affected reaction times. ","no","<div style=""font-size:60px;"">+</div>","null","","","","","","",""
"","508","image-keyboard-response","52","2.0.0","60990","puza1jfd4px","bigger","axolotl","to test whether inconcruent and congurnet affected reaction times. ","no","stimuli/32-Inongruent.jpg","m","","","","","right","m","true"
"","null","html-keyboard-response","53","2.0.0","61895","puza1jfd4px","bigger","axolotl","to test whether inconcruent and congurnet affected reaction times. ","no","<p>Correct!</p>","null","","","","","","",""
"","null","html-keyboard-response","54","2.0.0","62902","puza1jfd4px","bigger","axolotl","to test whether inconcruent and congurnet affected reaction times. ","no","<div style=""font-size:60px;"">+</div>","null","","","","","","",""
"","331","image-keyboard-response","55","2.0.0","63234","puza1jfd4px","bigger","axolotl","to test whether inconcruent and congurnet affected reaction times. ","no","stimuli/16-Congruent.jpg","z","","","","","left","z","true"
"","null","html-keyboard-response","56","2.0.0","64151","puza1jfd4px","bigger","axolotl","to test whether inconcruent and congurnet affected reaction times. ","no","<p>Correct!</p>","null","","","","","","",""
"","null","html-keyboard-response","57","2.0.0","65164","puza1jfd4px","bigger","axolotl","to test whether inconcruent and congurnet affected reaction times. ","no","<div style=""font-size:60px;"">+</div>","null","","","","","","",""
"","500","image-keyboard-response","58","2.0.0","65666","puza1jfd4px","bigger","axolotl","to test whether inconcruent and congurnet affected reaction times. ","no","stimuli/11-Congruent.jpg","z","","","","","left","z","true"
"","null","html-keyboard-response","59","2.0.0","66582","puza1jfd4px","bigger","axolotl","to test whether inconcruent and congurnet affected reaction times. ","no","<p>Correct!</p>","null","","","","","","",""
"","null","html-keyboard-response","60","2.0.0","67591","puza1jfd4px","bigger","axolotl","to test whether inconcruent and congurnet affected reaction times. ","no","<div style=""font-size:60px;"">+</div>","null","","","","","","",""
"","424","image-keyboard-response","61","2.0.0","68016","puza1jfd4px","bigger","axolotl","to test whether inconcruent and congurnet affected reaction times. ","no","stimuli/9-Congruent.jpg","z","","","","","left","z","true"
"","null","html-keyboard-response","62","2.0.0","68922","puza1jfd4px","bigger","axolotl","to test whether inconcruent and congurnet affected reaction times. ","no","<p>Correct!</p>","null","","","","","","",""
"","null","html-keyboard-response","63","2.0.0","69928","puza1jfd4px","bigger","axolotl","to test whether inconcruent and congurnet affected reaction times. ","no","<div style=""font-size:60px;"">+</div>","null","","","","","","",""
"","377","image-keyboard-response","64","2.0.0","70307","puza1jfd4px","bigger","axolotl","to test whether inconcruent and congurnet affected reaction times. ","no","stimuli/23-Congruent.jpg","z","","","","","left","z","true"
"","null","html-keyboard-response","65","2.0.0","71209","puza1jfd4px","bigger","axolotl","to test whether inconcruent and congurnet affected reaction times. ","no","<p>Correct!</p>","null","","","","","","",""
"","null","html-keyboard-response","66","2.0.0","72213","puza1jfd4px","bigger","axolotl","to test whether inconcruent and congurnet affected reaction times. ","no","<div style=""font-size:60px;"">+</div>","null","","","","","","",""
"","438","image-keyboard-response","67","2.0.0","72652","puza1jfd4px","bigger","axolotl","to test whether inconcruent and congurnet affected reaction times. ","no","stimuli/29-Inongruent.jpg","m","","","","","right","m","true"
"","null","html-keyboard-response","68","2.0.0","73571","puza1jfd4px","bigger","axolotl","to test whether inconcruent and congurnet affected reaction times. ","no","<p>Correct!</p>","null","","","","","","",""
"","null","html-keyboard-response","69","2.0.0","74580","puza1jfd4px","bigger","axolotl","to test whether inconcruent and congurnet affected reaction times. ","no","<div style=""font-size:60px;"">+</div>","null","","","","","","",""
"","320","image-keyboard-response","70","2.0.0","74902","puza1jfd4px","bigger","axolotl","to test whether inconcruent and congurnet affected reaction times. ","no","stimuli/19-Congruent.jpg","z","","","","","left","z","true"
"","null","html-keyboard-response","71","2.0.0","75805","puza1jfd4px","bigger","axolotl","to test whether inconcruent and congurnet affected reaction times. ","no","<p>Correct!</p>","null","","","","","","",""
"","null","html-keyboard-response","72","2.0.0","76811","puza1jfd4px","bigger","axolotl","to test whether inconcruent and congurnet affected reaction times. ","no","<div style=""font-size:60px;"">+</div>","null","","","","","","",""
"","486","image-keyboard-response","73","2.0.0","77298","puza1jfd4px","bigger","axolotl","to test whether inconcruent and congurnet affected reaction times. ","no","stimuli/13-Inongruent.jpg","m","","","","","right","m","true"
"","null","html-keyboard-response","74","2.0.0","78204","puza1jfd4px","bigger","axolotl","to test whether inconcruent and congurnet affected reaction times. ","no","<p>Correct!</p>","null","","","","","","",""
"","null","html-keyboard-response","75","2.0.0","79217","puza1jfd4px","bigger","axolotl","to test whether inconcruent and congurnet affected reaction times. ","no","<div style=""font-size:60px;"">+</div>","null","","","","","","",""
"","440","image-keyboard-response","76","2.0.0","79658","puza1jfd4px","bigger","axolotl","to test whether inconcruent and congurnet affected reaction times. ","no","stimuli/4-Inongruent.jpg","m","","","","","right","m","true"
"","null","html-keyboard-response","77","2.0.0","80567","puza1jfd4px","bigger","axolotl","to test whether inconcruent and congurnet affected reaction times. ","no","<p>Correct!</p>","null","","","","","","",""
"","null","html-keyboard-response","78","2.0.0","81575","puza1jfd4px","bigger","axolotl","to test whether inconcruent and congurnet affected reaction times. ","no","<div style=""font-size:60px;"">+</div>","null","","","","","","",""
"","340","image-keyboard-response","79","2.0.0","81916","puza1jfd4px","bigger","axolotl","to test whether inconcruent and congurnet affected reaction times. ","no","stimuli/22-Inongruent.jpg","m","","","","","right","m","true"
"","null","html-keyboard-response","80","2.0.0","82824","puza1jfd4px","bigger","axolotl","to test whether inconcruent and congurnet affected reaction times. ","no","<p>Correct!</p>","null","","","","","","",""
"","null","html-keyboard-response","81","2.0.0","83831","puza1jfd4px","bigger","axolotl","to test whether inconcruent and congurnet affected reaction times. ","no","<div style=""font-size:60px;"">+</div>","null","","","","","","",""
"","278","image-keyboard-response","82","2.0.0","84111","puza1jfd4px","bigger","axolotl","to test whether inconcruent and congurnet affected reaction times. ","no","stimuli/34-Congruent.jpg","z","","","","","left","z","true"
"","null","html-keyboard-response","83","2.0.0","85015","puza1jfd4px","bigger","axolotl","to test whether inconcruent and congurnet affected reaction times. ","no","<p>Correct!</p>","null","","","","","","",""
"","null","html-keyboard-response","84","2.0.0","86028","puza1jfd4px","bigger","axolotl","to test whether inconcruent and congurnet affected reaction times. ","no","<div style=""font-size:60px;"">+</div>","null","","","","","","",""
"","368","image-keyboard-response","85","2.0.0","86396","puza1jfd4px","bigger","axolotl","to test whether inconcruent and congurnet affected reaction times. ","no","stimuli/14-Inongruent.jpg","m","","","","","right","m","true"
"","null","html-keyboard-response","86","2.0.0","87298","puza1jfd4px","bigger","axolotl","to test whether inconcruent and congurnet affected reaction times. ","no","<p>Correct!</p>","null","","","","","","",""
"","null","html-keyboard-response","87","2.0.0","88305","puza1jfd4px","bigger","axolotl","to test whether inconcruent and congurnet affected reaction times. ","no","<div style=""font-size:60px;"">+</div>","null","","","","","","",""
"","278","image-keyboard-response","88","2.0.0","88584","puza1jfd4px","bigger","axolotl","to test whether inconcruent and congurnet affected reaction times. ","no","stimuli/21-Inongruent.jpg","z","","","","","right","m","false"
"","601","html-keyboard-response","89","2.0.0","89186","puza1jfd4px","bigger","axolotl","to test whether inconcruent and congurnet affected reaction times. ","no","<p>Incorrect.</p><p>Remember to select the <b>bigger</b> image.</p><p>Continuing in 5 seconds...</p>","m","","","","","","",""
"","null","html-keyboard-response","90","2.0.0","90198","puza1jfd4px","bigger","axolotl","to test whether inconcruent and congurnet affected reaction times. ","no","<div style=""font-size:60px;"">+</div>","null","","","","","","",""
"","545","image-keyboard-response","91","2.0.0","90744","puza1jfd4px","bigger","axolotl","to test whether inconcruent and congurnet affected reaction times. ","no","stimuli/33-Congruent.jpg","z","","","","","left","z","true"
"","null","html-keyboard-response","92","2.0.0","91648","puza1jfd4px","bigger","axolotl","to test whether inconcruent and congurnet affected reaction times. ","no","<p>Correct!</p>","null","","","","","","",""
"","null","html-keyboard-response","93","2.0.0","92655","puza1jfd4px","bigger","axolotl","to test whether inconcruent and congurnet affected reaction times. ","no","<div style=""font-size:60px;"">+</div>","null","","","","","","",""
"","325","image-keyboard-response","94","2.0.0","92981","puza1jfd4px","bigger","axolotl","to test whether inconcruent and congurnet affected reaction times. ","no","stimuli/27-Congruent.jpg","z","","","","","left","z","true"
"","null","html-keyboard-response","95","2.0.0","93888","puza1jfd4px","bigger","axolotl","to test whether inconcruent and congurnet affected reaction times. ","no","<p>Correct!</p>","null","","","","","","",""
"","null","html-keyboard-response","96","2.0.0","94897","puza1jfd4px","bigger","axolotl","to test whether inconcruent and congurnet affected reaction times. ","no","<div style=""font-size:60px;"">+</div>","null","","","","","","",""
"","301","image-keyboard-response","97","2.0.0","95200","puza1jfd4px","bigger","axolotl","to test whether inconcruent and congurnet affected reaction times. ","no","stimuli/28-Congruent.jpg","z","","","","","left","z","true"
"","null","html-keyboard-response","98","2.0.0","96113","puza1jfd4px","bigger","axolotl","to test whether inconcruent and congurnet affected reaction times. ","no","<p>Correct!</p>","null","","","","","","",""
"","null","html-keyboard-response","99","2.0.0","97121","puza1jfd4px","bigger","axolotl","to test whether inconcruent and congurnet affected reaction times. ","no","<div style=""font-size:60px;"">+</div>","null","","","","","","",""
"","337","image-keyboard-response","100","2.0.0","97459","puza1jfd4px","bigger","axolotl","to test whether inconcruent and congurnet affected reaction times. ","no","stimuli/30-Inongruent.jpg","m","","","","","right","m","true"
"","null","html-keyboard-response","101","2.0.0","98375","puza1jfd4px","bigger","axolotl","to test whether inconcruent and congurnet affected reaction times. ","no","<p>Correct!</p>","null","","","","","","",""
"","null","html-keyboard-response","102","2.0.0","99390","puza1jfd4px","bigger","axolotl","to test whether inconcruent and congurnet affected reaction times. ","no","<div style=""font-size:60px;"">+</div>","null","","","","","","",""
"","347","image-keyboard-response","103","2.0.0","99738","puza1jfd4px","bigger","axolotl","to test whether inconcruent and congurnet affected reaction times. ","no","stimuli/20-Inongruent.jpg","m","","","","","right","m","true"
"","null","html-keyboard-response","104","2.0.0","100643","puza1jfd4px","bigger","axolotl","to test whether inconcruent and congurnet affected reaction times. ","no","<p>Correct!</p>","null","","","","","","",""
"","null","html-keyboard-response","105","2.0.0","101650","puza1jfd4px","bigger","axolotl","to test whether inconcruent and congurnet affected reaction times. ","no","<div style=""font-size:60px;"">+</div>","null","","","","","","",""
"","285","image-keyboard-response","106","2.0.0","101936","puza1jfd4px","bigger","axolotl","to test whether inconcruent and congurnet affected reaction times. ","no","stimuli/29-Congruent.jpg","z","","","","","left","z","true"
"","null","html-keyboard-response","107","2.0.0","102852","puza1jfd4px","bigger","axolotl","to test whether inconcruent and congurnet affected reaction times. ","no","<p>Correct!</p>","null","","","","","","",""
"","null","html-keyboard-response","108","2.0.0","103862","puza1jfd4px","bigger","axolotl","to test whether inconcruent and congurnet affected reaction times. ","no","<div style=""font-size:60px;"">+</div>","null","","","","","","",""
"","284","image-keyboard-response","109","2.0.0","104147","puza1jfd4px","bigger","axolotl","to test whether inconcruent and congurnet affected reaction times. ","no","stimuli/36-Congruent.jpg","z","","","","","left","z","true"
"","null","html-keyboard-response","110","2.0.0","105062","puza1jfd4px","bigger","axolotl","to test whether inconcruent and congurnet affected reaction times. ","no","<p>Correct!</p>","null","","","","","","",""
"","null","html-keyboard-response","111","2.0.0","106068","puza1jfd4px","bigger","axolotl","to test whether inconcruent and congurnet affected reaction times. ","no","<div style=""font-size:60px;"">+</div>","null","","","","","","",""
"","278","image-keyboard-response","112","2.0.0","106347","puza1jfd4px","bigger","axolotl","to test whether inconcruent and congurnet affected reaction times. ","no","stimuli/17-Congruent.jpg","z","","","","","left","z","true"
"","null","html-keyboard-response","113","2.0.0","107249","puza1jfd4px","bigger","axolotl","to test whether inconcruent and congurnet affected reaction times. ","no","<p>Correct!</p>","null","","","","","","",""
"","null","html-keyboard-response","114","2.0.0","108258","puza1jfd4px","bigger","axolotl","to test whether inconcruent and congurnet affected reaction times. ","no","<div style=""font-size:60px;"">+</div>","null","","","","","","",""
"","278","image-keyboard-response","115","2.0.0","108538","puza1jfd4px","bigger","axolotl","to test whether inconcruent and congurnet affected reaction times. ","no","stimuli/24-Inongruent.jpg","m","","","","","right","m","true"
"","null","html-keyboard-response","116","2.0.0","109450","puza1jfd4px","bigger","axolotl","to test whether inconcruent and congurnet affected reaction times. ","no","<p>Correct!</p>","null","","","","","","",""
"","null","html-keyboard-response","117","2.0.0","110454","puza1jfd4px","bigger","axolotl","to test whether inconcruent and congurnet affected reaction times. ","no","<div style=""font-size:60px;"">+</div>","null","","","","","","",""
"","302","image-keyboard-response","118","2.0.0","110757","puza1jfd4px","bigger","axolotl","to test whether inconcruent and congurnet affected reaction times. ","no","stimuli/7-Congruent.jpg","z","","","","","left","z","true"
"","null","html-keyboard-response","119","2.0.0","111670","puza1jfd4px","bigger","axolotl","to test whether inconcruent and congurnet affected reaction times. ","no","<p>Correct!</p>","null","","","","","","",""
"","null","html-keyboard-response","120","2.0.0","112673","puza1jfd4px","bigger","axolotl","to test whether inconcruent and congurnet affected reaction times. ","no","<div style=""font-size:60px;"">+</div>","null","","","","","","",""
"","338","image-keyboard-response","121","2.0.0","113012","puza1jfd4px","bigger","axolotl","to test whether inconcruent and congurnet affected reaction times. ","no","stimuli/16-Congruent.jpg","z","","","","","left","z","true"
"","null","html-keyboard-response","122","2.0.0","113919","puza1jfd4px","bigger","axolotl","to test whether inconcruent and congurnet affected reaction times. ","no","<p>Correct!</p>","null","","","","","","",""
"","null","html-keyboard-response","123","2.0.0","114927","puza1jfd4px","bigger","axolotl","to test whether inconcruent and congurnet affected reaction times. ","no","<div style=""font-size:60px;"">+</div>","null","","","","","","",""
"","323","image-keyboard-response","124","2.0.0","115252","puza1jfd4px","bigger","axolotl","to test whether inconcruent and congurnet affected reaction times. ","no","stimuli/13-Congruent.jpg","z","","","","","left","z","true"
"","null","html-keyboard-response","125","2.0.0","116155","puza1jfd4px","bigger","axolotl","to test whether inconcruent and congurnet affected reaction times. ","no","<p>Correct!</p>","null","","","","","","",""
"","null","html-keyboard-response","126","2.0.0","117168","puza1jfd4px","bigger","axolotl","to test whether inconcruent and congurnet affected reaction times. ","no","<div style=""font-size:60px;"">+</div>","null","","","","","","",""
"","361","image-keyboard-response","127","2.0.0","117531","puza1jfd4px","bigger","axolotl","to test whether inconcruent and congurnet affected reaction times. ","no","stimuli/28-Inongruent.jpg","m","","","","","right","m","true"
"","null","html-keyboard-response","128","2.0.0","118433","puza1jfd4px","bigger","axolotl","to test whether inconcruent and congurnet affected reaction times. ","no","<p>Correct!</p>","null","","","","","","",""
"","null","html-keyboard-response","129","2.0.0","119444","puza1jfd4px","bigger","axolotl","to test whether inconcruent and congurnet affected reaction times. ","no","<div style=""font-size:60px;"">+</div>","null","","","","","","",""
"","326","image-keyboard-response","130","2.0.0","119772","puza1jfd4px","bigger","axolotl","to test whether inconcruent and congurnet affected reaction times. ","no","stimuli/5-Inongruent.jpg","m","","","","","right","m","true"
"","null","html-keyboard-response","131","2.0.0","120679","puza1jfd4px","bigger","axolotl","to test whether inconcruent and congurnet affected reaction times. ","no","<p>Correct!</p>","null","","","","","","",""
"","null","html-keyboard-response","132","2.0.0","121687","puza1jfd4px","bigger","axolotl","to test whether inconcruent and congurnet affected reaction times. ","no","<div style=""font-size:60px;"">+</div>","null","","","","","","",""
"","353","image-keyboard-response","133","2.0.0","122041","puza1jfd4px","bigger","axolotl","to test whether inconcruent and congurnet affected reaction times. ","no","stimuli/3-Inongruent.jpg","m","","","","","right","m","true"
"","null","html-keyboard-response","134","2.0.0","122945","puza1jfd4px","bigger","axolotl","to test whether inconcruent and congurnet affected reaction times. ","no","<p>Correct!</p>","null","","","","","","",""
"","null","html-keyboard-response","135","2.0.0","123954","puza1jfd4px","bigger","axolotl","to test whether inconcruent and congurnet affected reaction times. ","no","<div style=""font-size:60px;"">+</div>","null","","","","","","",""
"","239","image-keyboard-response","136","2.0.0","124195","puza1jfd4px","bigger","axolotl","to test whether inconcruent and congurnet affected reaction times. ","no","stimuli/3-Congruent.jpg","z","","","","","left","z","true"
"","null","html-keyboard-response","137","2.0.0","125112","puza1jfd4px","bigger","axolotl","to test whether inconcruent and congurnet affected reaction times. ","no","<p>Correct!</p>","null","","","","","","",""
"","null","html-keyboard-response","138","2.0.0","126122","puza1jfd4px","bigger","axolotl","to test whether inconcruent and congurnet affected reaction times. ","no","<div style=""font-size:60px;"">+</div>","null","","","","","","",""
"","318","image-keyboard-response","139","2.0.0","126441","puza1jfd4px","bigger","axolotl","to test whether inconcruent and congurnet affected reaction times. ","no","stimuli/31-Congruent.jpg","z","","","","","left","z","true"
"","null","html-keyboard-response","140","2.0.0","127346","puza1jfd4px","bigger","axolotl","to test whether inconcruent and congurnet affected reaction times. ","no","<p>Correct!</p>","null","","","","","","",""
"","null","html-keyboard-response","141","2.0.0","128353","puza1jfd4px","bigger","axolotl","to test whether inconcruent and congurnet affected reaction times. ","no","<div style=""font-size:60px;"">+</div>","null","","","","","","",""
"","323","image-keyboard-response","142","2.0.0","128676","puza1jfd4px","bigger","axolotl","to test whether inconcruent and congurnet affected reaction times. ","no","stimuli/2-Congruent.jpg","z","","","","","left","z","true"
"","null","html-keyboard-response","143","2.0.0","129589","puza1jfd4px","bigger","axolotl","to test whether inconcruent and congurnet affected reaction times. ","no","<p>Correct!</p>","null","","","","","","",""
"","null","html-keyboard-response","144","2.0.0","130596","puza1jfd4px","bigger","axolotl","to test whether inconcruent and congurnet affected reaction times. ","no","<div style=""font-size:60px;"">+</div>","null","","","","","","",""
"","294","image-keyboard-response","145","2.0.0","130891","puza1jfd4px","bigger","axolotl","to test whether inconcruent and congurnet affected reaction times. ","no","stimuli/36-Congruent.jpg","z","","","","","left","z","true"
"","null","html-keyboard-response","146","2.0.0","131807","puza1jfd4px","bigger","axolotl","to test whether inconcruent and congurnet affected reaction times. ","no","<p>Correct!</p>","null","","","","","","",""
"","null","html-keyboard-response","147","2.0.0","132817","puza1jfd4px","bigger","axolotl","to test whether inconcruent and congurnet affected reaction times. ","no","<div style=""font-size:60px;"">+</div>","null","","","","","","",""
"","253","image-keyboard-response","148","2.0.0","133071","puza1jfd4px","bigger","axolotl","to test whether inconcruent and congurnet affected reaction times. ","no","stimuli/1-Inongruent.jpg","m","","","","","right","m","true"
"","null","html-keyboard-response","149","2.0.0","133980","puza1jfd4px","bigger","axolotl","to test whether inconcruent and congurnet affected reaction times. ","no","<p>Correct!</p>","null","","","","","","",""
"","null","html-keyboard-response","150","2.0.0","134987","puza1jfd4px","bigger","axolotl","to test whether inconcruent and congurnet affected reaction times. ","no","<div style=""font-size:60px;"">+</div>","null","","","","","","",""
"","281","image-keyboard-response","151","2.0.0","135269","puza1jfd4px","bigger","axolotl","to test whether inconcruent and congurnet affected reaction times. ","no","stimuli/34-Inongruent.jpg","z","","","","","right","m","false"
"","499","html-keyboard-response","152","2.0.0","135768","puza1jfd4px","bigger","axolotl","to test whether inconcruent and congurnet affected reaction times. ","no","<p>Incorrect.</p><p>Remember to select the <b>bigger</b> image.</p><p>Continuing in 5 seconds...</p>","m","","","","","","",""
"","null","html-keyboard-response","153","2.0.0","136776","puza1jfd4px","bigger","axolotl","to test whether inconcruent and congurnet affected reaction times. ","no","<div style=""font-size:60px;"">+</div>","null","","","","","","",""
"","484","image-keyboard-response","154","2.0.0","137262","puza1jfd4px","bigger","axolotl","to test whether inconcruent and congurnet affected reaction times. ","no","stimuli/1-Inongruent.jpg","m","","","","","right","m","true"
"","null","html-keyboard-response","155","2.0.0","138170","puza1jfd4px","bigger","axolotl","to test whether inconcruent and congurnet affected reaction times. ","no","<p>Correct!</p>","null","","","","","","",""
"","null","html-keyboard-response","156","2.0.0","139176","puza1jfd4px","bigger","axolotl","to test whether inconcruent and congurnet affected reaction times. ","no","<div style=""font-size:60px;"">+</div>","null","","","","","","",""
"","357","image-keyboard-response","157","2.0.0","139535","puza1jfd4px","bigger","axolotl","to test whether inconcruent and congurnet affected reaction times. ","no","stimuli/13-Inongruent.jpg","m","","","","","right","m","true"
"","null","html-keyboard-response","158","2.0.0","140449","puza1jfd4px","bigger","axolotl","to test whether inconcruent and congurnet affected reaction times. ","no","<p>Correct!</p>","null","","","","","","",""
"","null","html-keyboard-response","159","2.0.0","141458","puza1jfd4px","bigger","axolotl","to test whether inconcruent and congurnet affected reaction times. ","no","<div style=""font-size:60px;"">+</div>","null","","","","","","",""
"","310","image-keyboard-response","160","2.0.0","141769","puza1jfd4px","bigger","axolotl","to test whether inconcruent and congurnet affected reaction times. ","no","stimuli/25-Congruent.jpg","z","","","","","left","z","true"
"","null","html-keyboard-response","161","2.0.0","142679","puza1jfd4px","bigger","axolotl","to test whether inconcruent and congurnet affected reaction times. ","no","<p>Correct!</p>","null","","","","","","",""
"","null","html-keyboard-response","162","2.0.0","143681","puza1jfd4px","bigger","axolotl","to test whether inconcruent and congurnet affected reaction times. ","no","<div style=""font-size:60px;"">+</div>","null","","","","","","",""
"","315","image-keyboard-response","163","2.0.0","143997","puza1jfd4px","bigger","axolotl","to test whether inconcruent and congurnet affected reaction times. ","no","stimuli/8-Inongruent.jpg","m","","","","","right","m","true"
"","null","html-keyboard-response","164","2.0.0","144900","puza1jfd4px","bigger","axolotl","to test whether inconcruent and congurnet affected reaction times. ","no","<p>Correct!</p>","null","","","","","","",""
"","null","html-keyboard-response","165","2.0.0","145914","puza1jfd4px","bigger","axolotl","to test whether inconcruent and congurnet affected reaction times. ","no","<div style=""font-size:60px;"">+</div>","null","","","","","","",""
"","367","image-keyboard-response","166","2.0.0","146282","puza1jfd4px","bigger","axolotl","to test whether inconcruent and congurnet affected reaction times. ","no","stimuli/35-Inongruent.jpg","m","","","","","right","m","true"
"","null","html-keyboard-response","167","2.0.0","147198","puza1jfd4px","bigger","axolotl","to test whether inconcruent and congurnet affected reaction times. ","no","<p>Correct!</p>","null","","","","","","",""
"","null","html-keyboard-response","168","2.0.0","148200","puza1jfd4px","bigger","axolotl","to test whether inconcruent and congurnet affected reaction times. ","no","<div style=""font-size:60px;"">+</div>","null","","","","","","",""
"","342","image-keyboard-response","169","2.0.0","148543","puza1jfd4px","bigger","axolotl","to test whether inconcruent and congurnet affected reaction times. ","no","stimuli/10-Inongruent.jpg","m","","","","","right","m","true"
"","null","html-keyboard-response","170","2.0.0","149449","puza1jfd4px","bigger","axolotl","to test whether inconcruent and congurnet affected reaction times. ","no","<p>Correct!</p>","null","","","","","","",""
"","null","html-keyboard-response","171","2.0.0","150456","puza1jfd4px","bigger","axolotl","to test whether inconcruent and congurnet affected reaction times. ","no","<div style=""font-size:60px;"">+</div>","null","","","","","","",""
"","276","image-keyboard-response","172","2.0.0","150734","puza1jfd4px","bigger","axolotl","to test whether inconcruent and congurnet affected reaction times. ","no","stimuli/15-Congruent.jpg","z","","","","","left","z","true"
"","null","html-keyboard-response","173","2.0.0","151635","puza1jfd4px","bigger","axolotl","to test whether inconcruent and congurnet affected reaction times. ","no","<p>Correct!</p>","null","","","","","","",""
"","null","html-keyboard-response","174","2.0.0","152639","puza1jfd4px","bigger","axolotl","to test whether inconcruent and congurnet affected reaction times. ","no","<div style=""font-size:60px;"">+</div>","null","","","","","","",""
"","313","image-keyboard-response","175","2.0.0","152953","puza1jfd4px","bigger","axolotl","to test whether inconcruent and congurnet affected reaction times. ","no","stimuli/25-Congruent.jpg","z","","","","","left","z","true"
"","null","html-keyboard-response","176","2.0.0","153858","puza1jfd4px","bigger","axolotl","to test whether inconcruent and congurnet affected reaction times. ","no","<p>Correct!</p>","null","","","","","","",""
"","null","html-keyboard-response","177","2.0.0","154866","puza1jfd4px","bigger","axolotl","to test whether inconcruent and congurnet affected reaction times. ","no","<div style=""font-size:60px;"">+</div>","null","","","","","","",""
"","309","image-keyboard-response","178","2.0.0","155176","puza1jfd4px","bigger","axolotl","to test whether inconcruent and congurnet affected reaction times. ","no","stimuli/11-Inongruent.jpg","m","","","","","right","m","true"
"","null","html-keyboard-response","179","2.0.0","156085","puza1jfd4px","bigger","axolotl","to test whether inconcruent and congurnet affected reaction times. ","no","<p>Correct!</p>","null","","","","","","",""
"","null","html-keyboard-response","180","2.0.0","157091","puza1jfd4px","bigger","axolotl","to test whether inconcruent and congurnet affected reaction times. ","no","<div style=""font-size:60px;"">+</div>","null","","","","","","",""
"","249","image-keyboard-response","181","2.0.0","157341","puza1jfd4px","bigger","axolotl","to test whether inconcruent and congurnet affected reaction times. ","no","stimuli/8-Inongruent.jpg","z","","","","","right","m","false"
"","474","html-keyboard-response","182","2.0.0","157816","puza1jfd4px","bigger","axolotl","to test whether inconcruent and congurnet affected reaction times. ","no","<p>Incorrect.</p><p>Remember to select the <b>bigger</b> image.</p><p>Continuing in 5 seconds...</p>","m","","","","","","",""
"","null","html-keyboard-response","183","2.0.0","158819","puza1jfd4px","bigger","axolotl","to test whether inconcruent and congurnet affected reaction times. ","no","<div style=""font-size:60px;"">+</div>","null","","","","","","",""
"","429","image-keyboard-response","184","2.0.0","159249","puza1jfd4px","bigger","axolotl","to test whether inconcruent and congurnet affected reaction times. ","no","stimuli/4-Congruent.jpg","z","","","","","left","z","true"
"","null","html-keyboard-response","185","2.0.0","160154","puza1jfd4px","bigger","axolotl","to test whether inconcruent and congurnet affected reaction times. ","no","<p>Correct!</p>","null","","","","","","",""
"","null","html-keyboard-response","186","2.0.0","161168","puza1jfd4px","bigger","axolotl","to test whether inconcruent and congurnet affected reaction times. ","no","<div style=""font-size:60px;"">+</div>","null","","","","","","",""
"","379","image-keyboard-response","187","2.0.0","161548","puza1jfd4px","bigger","axolotl","to test whether inconcruent and congurnet affected reaction times. ","no","stimuli/19-Inongruent.jpg","m","","","","","right","m","true"
"","null","html-keyboard-response","188","2.0.0","162455","puza1jfd4px","bigger","axolotl","to test whether inconcruent and congurnet affected reaction times. ","no","<p>Correct!</p>","null","","","","","","",""
"","null","html-keyboard-response","189","2.0.0","163459","puza1jfd4px","bigger","axolotl","to test whether inconcruent and congurnet affected reaction times. ","no","<div style=""font-size:60px;"">+</div>","null","","","","","","",""
"","283","image-keyboard-response","190","2.0.0","163743","puza1jfd4px","bigger","axolotl","to test whether inconcruent and congurnet affected reaction times. ","no","stimuli/22-Congruent.jpg","z","","","","","left","z","true"
"","null","html-keyboard-response","191","2.0.0","164649","puza1jfd4px","bigger","axolotl","to test whether inconcruent and congurnet affected reaction times. ","no","<p>Correct!</p>","null","","","","","","",""
"","null","html-keyboard-response","192","2.0.0","165657","puza1jfd4px","bigger","axolotl","to test whether inconcruent and congurnet affected reaction times. ","no","<div style=""font-size:60px;"">+</div>","null","","","","","","",""
"","346","image-keyboard-response","193","2.0.0","166005","puza1jfd4px","bigger","axolotl","to test whether inconcruent and congurnet affected reaction times. ","no","stimuli/9-Inongruent.jpg","m","","","","","right","m","true"
"","null","html-keyboard-response","194","2.0.0","166912","puza1jfd4px","bigger","axolotl","to test whether inconcruent and congurnet affected reaction times. ","no","<p>Correct!</p>","null","","","","","","",""
"","null","html-keyboard-response","195","2.0.0","167917","puza1jfd4px","bigger","axolotl","to test whether inconcruent and congurnet affected reaction times. ","no","<div style=""font-size:60px;"">+</div>","null","","","","","","",""
"","346","image-keyboard-response","196","2.0.0","168264","puza1jfd4px","bigger","axolotl","to test whether inconcruent and congurnet affected reaction times. ","no","stimuli/25-Inongruent.jpg","m","","","","","right","m","true"
"","null","html-keyboard-response","197","2.0.0","169170","puza1jfd4px","bigger","axolotl","to test whether inconcruent and congurnet affected reaction times. ","no","<p>Correct!</p>","null","","","","","","",""
"","null","html-keyboard-response","198","2.0.0","170179","puza1jfd4px","bigger","axolotl","to test whether inconcruent and congurnet affected reaction times. ","no","<div style=""font-size:60px;"">+</div>","null","","","","","","",""
"","299","image-keyboard-response","199","2.0.0","170478","puza1jfd4px","bigger","axolotl","to test whether inconcruent and congurnet affected reaction times. ","no","stimuli/13-Congruent.jpg","z","","","","","left","z","true"
"","null","html-keyboard-response","200","2.0.0","171387","puza1jfd4px","bigger","axolotl","to test whether inconcruent and congurnet affected reaction times. ","no","<p>Correct!</p>","null","","","","","","",""
"","null","html-keyboard-response","201","2.0.0","172391","puza1jfd4px","bigger","axolotl","to test whether inconcruent and congurnet affected reaction times. ","no","<div style=""font-size:60px;"">+</div>","null","","","","","","",""
"","347","image-keyboard-response","202","2.0.0","172740","puza1jfd4px","bigger","axolotl","to test whether inconcruent and congurnet affected reaction times. ","no","stimuli/21-Inongruent.jpg","m","","","","","right","m","true"
"","null","html-keyboard-response","203","2.0.0","173647","puza1jfd4px","bigger","axolotl","to test whether inconcruent and congurnet affected reaction times. ","no","<p>Correct!</p>","null","","","","","","",""
"","null","html-keyboard-response","204","2.0.0","174650","puza1jfd4px","bigger","axolotl","to test whether inconcruent and congurnet affected reaction times. ","no","<div style=""font-size:60px;"">+</div>","null","","","","","","",""
"","344","image-keyboard-response","205","2.0.0","174995","puza1jfd4px","bigger","axolotl","to test whether inconcruent and congurnet affected reaction times. ","no","stimuli/27-Congruent.jpg","z","","","","","left","z","true"
"","null","html-keyboard-response","206","2.0.0","175898","puza1jfd4px","bigger","axolotl","to test whether inconcruent and congurnet affected reaction times. ","no","<p>Correct!</p>","null","","","","","","",""
"","null","html-keyboard-response","207","2.0.0","176904","puza1jfd4px","bigger","axolotl","to test whether inconcruent and congurnet affected reaction times. ","no","<div style=""font-size:60px;"">+</div>","null","","","","","","",""
"","289","image-keyboard-response","208","2.0.0","177195","puza1jfd4px","bigger","axolotl","to test whether inconcruent and congurnet affected reaction times. ","no","stimuli/26-Congruent.jpg","z","","","","","left","z","true"
"","null","html-keyboard-response","209","2.0.0","178104","puza1jfd4px","bigger","axolotl","to test whether inconcruent and congurnet affected reaction times. ","no","<p>Correct!</p>","null","","","","","","",""
"","null","html-keyboard-response","210","2.0.0","179119","puza1jfd4px","bigger","axolotl","to test whether inconcruent and congurnet affected reaction times. ","no","<div style=""font-size:60px;"">+</div>","null","","","","","","",""
"","329","image-keyboard-response","211","2.0.0","179450","puza1jfd4px","bigger","axolotl","to test whether inconcruent and congurnet affected reaction times. ","no","stimuli/18-Inongruent.jpg","m","","","","","right","m","true"
"","null","html-keyboard-response","212","2.0.0","180354","puza1jfd4px","bigger","axolotl","to test whether inconcruent and congurnet affected reaction times. ","no","<p>Correct!</p>","null","","","","","","",""
"","null","html-keyboard-response","213","2.0.0","181358","puza1jfd4px","bigger","axolotl","to test whether inconcruent and congurnet affected reaction times. ","no","<div style=""font-size:60px;"">+</div>","null","","","","","","",""
"","365","image-keyboard-response","214","2.0.0","181724","puza1jfd4px","bigger","axolotl","to test whether inconcruent and congurnet affected reaction times. ","no","stimuli/12-Inongruent.jpg","m","","","","","right","m","true"
"","null","html-keyboard-response","215","2.0.0","182627","puza1jfd4px","bigger","axolotl","to test whether inconcruent and congurnet affected reaction times. ","no","<p>Correct!</p>","null","","","","","","",""
"","null","html-keyboard-response","216","2.0.0","183636","puza1jfd4px","bigger","axolotl","to test whether inconcruent and congurnet affected reaction times. ","no","<div style=""font-size:60px;"">+</div>","null","","","","","","",""
"","356","image-keyboard-response","217","2.0.0","183993","puza1jfd4px","bigger","axolotl","to test whether inconcruent and congurnet affected reaction times. ","no","stimuli/11-Inongruent.jpg","m","","","","","right","m","true"
"","null","html-keyboard-response","218","2.0.0","184894","puza1jfd4px","bigger","axolotl","to test whether inconcruent and congurnet affected reaction times. ","no","<p>Correct!</p>","null","","","","","","",""
"","null","html-keyboard-response","219","2.0.0","185898","puza1jfd4px","bigger","axolotl","to test whether inconcruent and congurnet affected reaction times. ","no","<div style=""font-size:60px;"">+</div>","null","","","","","","",""
"","321","image-keyboard-response","220","2.0.0","186221","puza1jfd4px","bigger","axolotl","to test whether inconcruent and congurnet affected reaction times. ","no","stimuli/2-Congruent.jpg","z","","","","","left","z","true"
"","null","html-keyboard-response","221","2.0.0","187126","puza1jfd4px","bigger","axolotl","to test whether inconcruent and congurnet affected reaction times. ","no","<p>Correct!</p>","null","","","","","","",""
"","null","html-keyboard-response","222","2.0.0","188133","puza1jfd4px","bigger","axolotl","to test whether inconcruent and congurnet affected reaction times. ","no","<div style=""font-size:60px;"">+</div>","null","","","","","","",""
"","348","image-keyboard-response","223","2.0.0","188482","puza1jfd4px","bigger","axolotl","to test whether inconcruent and congurnet affected reaction times. ","no","stimuli/10-Inongruent.jpg","m","","","","","right","m","true"
"","null","html-keyboard-response","224","2.0.0","189385","puza1jfd4px","bigger","axolotl","to test whether inconcruent and congurnet affected reaction times. ","no","<p>Correct!</p>","null","","","","","","",""
"","null","html-keyboard-response","225","2.0.0","190391","puza1jfd4px","bigger","axolotl","to test whether inconcruent and congurnet affected reaction times. ","no","<div style=""font-size:60px;"">+</div>","null","","","","","","",""
"","293","image-keyboard-response","226","2.0.0","190685","puza1jfd4px","bigger","axolotl","to test whether inconcruent and congurnet affected reaction times. ","no","stimuli/30-Congruent.jpg","z","","","","","left","z","true"
"","null","html-keyboard-response","227","2.0.0","191596","puza1jfd4px","bigger","axolotl","to test whether inconcruent and congurnet affected reaction times. ","no","<p>Correct!</p>","null","","","","","","",""
"","null","html-keyboard-response","228","2.0.0","192608","puza1jfd4px","bigger","axolotl","to test whether inconcruent and congurnet affected reaction times. ","no","<div style=""font-size:60px;"">+</div>","null","","","","","","",""
"","326","image-keyboard-response","229","2.0.0","192935","puza1jfd4px","bigger","axolotl","to test whether inconcruent and congurnet affected reaction times. ","no","stimuli/25-Inongruent.jpg","m","","","","","right","m","true"
"","null","html-keyboard-response","230","2.0.0","193844","puza1jfd4px","bigger","axolotl","to test whether inconcruent and congurnet affected reaction times. ","no","<p>Correct!</p>","null","","","","","","",""
"","null","html-keyboard-response","231","2.0.0","194857","puza1jfd4px","bigger","axolotl","to test whether inconcruent and congurnet affected reaction times. ","no","<div style=""font-size:60px;"">+</div>","null","","","","","","",""
"","341","image-keyboard-response","232","2.0.0","195199","puza1jfd4px","bigger","axolotl","to test whether inconcruent and congurnet affected reaction times. ","no","stimuli/6-Inongruent.jpg","m","","","","","right","m","true"
"","null","html-keyboard-response","233","2.0.0","196100","puza1jfd4px","bigger","axolotl","to test whether inconcruent and congurnet affected reaction times. ","no","<p>Correct!</p>","null","","","","","","",""
"","null","html-keyboard-response","234","2.0.0","197106","puza1jfd4px","bigger","axolotl","to test whether inconcruent and congurnet affected reaction times. ","no","<div style=""font-size:60px;"">+</div>","null","","","","","","",""
"","358","image-keyboard-response","235","2.0.0","197465","puza1jfd4px","bigger","axolotl","to test whether inconcruent and congurnet affected reaction times. ","no","stimuli/9-Inongruent.jpg","m","","","","","right","m","true"
"","null","html-keyboard-response","236","2.0.0","198370","puza1jfd4px","bigger","axolotl","to test whether inconcruent and congurnet affected reaction times. ","no","<p>Correct!</p>","null","","","","","","",""
"","null","html-keyboard-response","237","2.0.0","199380","puza1jfd4px","bigger","axolotl","to test whether inconcruent and congurnet affected reaction times. ","no","<div style=""font-size:60px;"">+</div>","null","","","","","","",""
"","546","image-keyboard-response","238","2.0.0","199926","puza1jfd4px","bigger","axolotl","to test whether inconcruent and congurnet affected reaction times. ","no","stimuli/26-Inongruent.jpg","m","","","","","right","m","true"
"","null","html-keyboard-response","239","2.0.0","200839","puza1jfd4px","bigger","axolotl","to test whether inconcruent and congurnet affected reaction times. ","no","<p>Correct!</p>","null","","","","","","",""
"","null","html-keyboard-response","240","2.0.0","201852","puza1jfd4px","bigger","axolotl","to test whether inconcruent and congurnet affected reaction times. ","no","<div style=""font-size:60px;"">+</div>","null","","","","","","",""
"","353","image-keyboard-response","241","2.0.0","202206","puza1jfd4px","bigger","axolotl","to test whether inconcruent and congurnet affected reaction times. ","no","stimuli/17-Inongruent.jpg","m","","","","","right","m","true"
"","null","html-keyboard-response","242","2.0.0","203117","puza1jfd4px","bigger","axolotl","to test whether inconcruent and congurnet affected reaction times. ","no","<p>Correct!</p>","null","","","","","","",""
"","null","html-keyboard-response","243","2.0.0","204123","puza1jfd4px","bigger","axolotl","to test whether inconcruent and congurnet affected reaction times. ","no","<div style=""font-size:60px;"">+</div>","null","","","","","","",""
"","356","image-keyboard-response","244","2.0.0","204480","puza1jfd4px","bigger","axolotl","to test whether inconcruent and congurnet affected reaction times. ","no","stimuli/15-Inongruent.jpg","m","","","","","right","m","true"
"","null","html-keyboard-response","245","2.0.0","205394","puza1jfd4px","bigger","axolotl","to test whether inconcruent and congurnet affected reaction times. ","no","<p>Correct!</p>","null","","","","","","",""
"","null","html-keyboard-response","246","2.0.0","206409","puza1jfd4px","bigger","axolotl","to test whether inconcruent and congurnet affected reaction times. ","no","<div style=""font-size:60px;"">+</div>","null","","","","","","",""
"","325","image-keyboard-response","247","2.0.0","206735","puza1jfd4px","bigger","axolotl","to test whether inconcruent and congurnet affected reaction times. ","no","stimuli/32-Inongruent.jpg","m","","","","","right","m","true"
"","null","html-keyboard-response","248","2.0.0","207637","puza1jfd4px","bigger","axolotl","to test whether inconcruent and congurnet affected reaction times. ","no","<p>Correct!</p>","null","","","","","","",""
"","null","html-keyboard-response","249","2.0.0","208642","puza1jfd4px","bigger","axolotl","to test whether inconcruent and congurnet affected reaction times. ","no","<div style=""font-size:60px;"">+</div>","null","","","","","","",""
"","365","image-keyboard-response","250","2.0.0","209009","puza1jfd4px","bigger","axolotl","to test whether inconcruent and congurnet affected reaction times. ","no","stimuli/21-Congruent.jpg","z","","","","","left","z","true"
"","null","html-keyboard-response","251","2.0.0","209914","puza1jfd4px","bigger","axolotl","to test whether inconcruent and congurnet affected reaction times. ","no","<p>Correct!</p>","null","","","","","","",""
"","null","html-keyboard-response","252","2.0.0","210919","puza1jfd4px","bigger","axolotl","to test whether inconcruent and congurnet affected reaction times. ","no","<div style=""font-size:60px;"">+</div>","null","","","","","","",""
"","303","image-keyboard-response","253","2.0.0","211223","puza1jfd4px","bigger","axolotl","to test whether inconcruent and congurnet affected reaction times. ","no","stimuli/24-Congruent.jpg","z","","","","","left","z","true"
"","null","html-keyboard-response","254","2.0.0","212127","puza1jfd4px","bigger","axolotl","to test whether inconcruent and congurnet affected reaction times. ","no","<p>Correct!</p>","null","","","","","","",""
"","null","html-keyboard-response","255","2.0.0","213132","puza1jfd4px","bigger","axolotl","to test whether inconcruent and congurnet affected reaction times. ","no","<div style=""font-size:60px;"">+</div>","null","","","","","","",""
"","620","image-keyboard-response","256","2.0.0","213754","puza1jfd4px","bigger","axolotl","to test whether inconcruent and congurnet affected reaction times. ","no","stimuli/31-Inongruent.jpg","m","","","","","right","m","true"
"","null","html-keyboard-response","257","2.0.0","214663","puza1jfd4px","bigger","axolotl","to test whether inconcruent and congurnet affected reaction times. ","no","<p>Correct!</p>","null","","","","","","",""
"","null","html-keyboard-response","258","2.0.0","215667","puza1jfd4px","bigger","axolotl","to test whether inconcruent and congurnet affected reaction times. ","no","<div style=""font-size:60px;"">+</div>","null","","","","","","",""
"","346","image-keyboard-response","259","2.0.0","216014","puza1jfd4px","bigger","axolotl","to test whether inconcruent and congurnet affected reaction times. ","no","stimuli/29-Inongruent.jpg","m","","","","","right","m","true"
"","null","html-keyboard-response","260","2.0.0","216928","puza1jfd4px","bigger","axolotl","to test whether inconcruent and congurnet affected reaction times. ","no","<p>Correct!</p>","null","","","","","","",""
"","null","html-keyboard-response","261","2.0.0","217941","puza1jfd4px","bigger","axolotl","to test whether inconcruent and congurnet affected reaction times. ","no","<div style=""font-size:60px;"">+</div>","null","","","","","","",""
"","314","image-keyboard-response","262","2.0.0","218256","puza1jfd4px","bigger","axolotl","to test whether inconcruent and congurnet affected reaction times. ","no","stimuli/10-Congruent.jpg","z","","","","","left","z","true"
"","null","html-keyboard-response","263","2.0.0","219159","puza1jfd4px","bigger","axolotl","to test whether inconcruent and congurnet affected reaction times. ","no","<p>Correct!</p>","null","","","","","","",""
"","null","html-keyboard-response","264","2.0.0","220168","puza1jfd4px","bigger","axolotl","to test whether inconcruent and congurnet affected reaction times. ","no","<div style=""font-size:60px;"">+</div>","null","","","","","","",""
"","312","image-keyboard-response","265","2.0.0","220481","puza1jfd4px","bigger","axolotl","to test whether inconcruent and congurnet affected reaction times. ","no","stimuli/7-Inongruent.jpg","m","","","","","right","m","true"
"","null","html-keyboard-response","266","2.0.0","221389","puza1jfd4px","bigger","axolotl","to test whether inconcruent and congurnet affected reaction times. ","no","<p>Correct!</p>","null","","","","","","",""
"","null","html-keyboard-response","267","2.0.0","222392","puza1jfd4px","bigger","axolotl","to test whether inconcruent and congurnet affected reaction times. ","no","<div style=""font-size:60px;"">+</div>","null","","","","","","",""
"","287","image-keyboard-response","268","2.0.0","222680","puza1jfd4px","bigger","axolotl","to test whether inconcruent and congurnet affected reaction times. ","no","stimuli/22-Congruent.jpg","z","","","","","left","z","true"
"","null","html-keyboard-response","269","2.0.0","223588","puza1jfd4px","bigger","axolotl","to test whether inconcruent and congurnet affected reaction times. ","no","<p>Correct!</p>","null","","","","","","",""
"","null","html-keyboard-response","270","2.0.0","224605","puza1jfd4px","bigger","axolotl","to test whether inconcruent and congurnet affected reaction times. ","no","<div style=""font-size:60px;"">+</div>","null","","","","","","",""
"","474","image-keyboard-response","271","2.0.0","225080","puza1jfd4px","bigger","axolotl","to test whether inconcruent and congurnet affected reaction times. ","no","stimuli/6-Congruent.jpg","m","","","","","left","z","false"
"","647","html-keyboard-response","272","2.0.0","225728","puza1jfd4px","bigger","axolotl","to test whether inconcruent and congurnet affected reaction times. ","no","<p>Incorrect.</p><p>Remember to select the <b>bigger</b> image.</p><p>Continuing in 5 seconds...</p>","z","","","","","","",""
"","null","html-keyboard-response","273","2.0.0","226743","puza1jfd4px","bigger","axolotl","to test whether inconcruent and congurnet affected reaction times. ","no","<div style=""font-size:60px;"">+</div>","null","","","","","","",""
"","723","image-keyboard-response","274","2.0.0","227467","puza1jfd4px","bigger","axolotl","to test whether inconcruent and congurnet affected reaction times. ","no","stimuli/29-Congruent.jpg","z","","","","","left","z","true"
"","null","html-keyboard-response","275","2.0.0","228383","puza1jfd4px","bigger","axolotl","to test whether inconcruent and congurnet affected reaction times. ","no","<p>Correct!</p>","null","","","","","","",""
"","null","html-keyboard-response","276","2.0.0","229387","puza1jfd4px","bigger","axolotl","to test whether inconcruent and congurnet affected reaction times. ","no","<div style=""font-size:60px;"">+</div>","null","","","","","","",""
"","494","image-keyboard-response","277","2.0.0","229882","puza1jfd4px","bigger","axolotl","to test whether inconcruent and congurnet affected reaction times. ","no","stimuli/12-Congruent.jpg","m","","","","","left","z","false"
"","489","html-keyboard-response","278","2.0.0","230372","puza1jfd4px","bigger","axolotl","to test whether inconcruent and congurnet affected reaction times. ","no","<p>Incorrect.</p><p>Remember to select the <b>bigger</b> image.</p><p>Continuing in 5 seconds...</p>","z","","","","","","",""
"","null","html-keyboard-response","279","2.0.0","231387","puza1jfd4px","bigger","axolotl","to test whether inconcruent and congurnet affected reaction times. ","no","<div style=""font-size:60px;"">+</div>","null","","","","","","",""
"","497","image-keyboard-response","280","2.0.0","231885","puza1jfd4px","bigger","axolotl","to test whether inconcruent and congurnet affected reaction times. ","no","stimuli/6-Congruent.jpg","m","","","","","left","z","false"
"","576","html-keyboard-response","281","2.0.0","232461","puza1jfd4px","bigger","axolotl","to test whether inconcruent and congurnet affected reaction times. ","no","<p>Incorrect.</p><p>Remember to select the <b>bigger</b> image.</p><p>Continuing in 5 seconds...</p>","z","","","","","","",""
"","null","html-keyboard-response","282","2.0.0","233466","puza1jfd4px","bigger","axolotl","to test whether inconcruent and congurnet affected reaction times. ","no","<div style=""font-size:60px;"">+</div>","null","","","","","","",""
"","442","image-keyboard-response","283","2.0.0","233909","puza1jfd4px","bigger","axolotl","to test whether inconcruent and congurnet affected reaction times. ","no","stimuli/35-Inongruent.jpg","m","","","","","right","m","true"
"","null","html-keyboard-response","284","2.0.0","234814","puza1jfd4px","bigger","axolotl","to test whether inconcruent and congurnet affected reaction times. ","no","<p>Correct!</p>","null","","","","","","",""
"","null","html-keyboard-response","285","2.0.0","235826","puza1jfd4px","bigger","axolotl","to test whether inconcruent and congurnet affected reaction times. ","no","<div style=""font-size:60px;"">+</div>","null","","","","","","",""
"","348","image-keyboard-response","286","2.0.0","236175","puza1jfd4px","bigger","axolotl","to test whether inconcruent and congurnet affected reaction times. ","no","stimuli/4-Congruent.jpg","z","","","","","left","z","true"
"","null","html-keyboard-response","287","2.0.0","237082","puza1jfd4px","bigger","axolotl","to test whether inconcruent and congurnet affected reaction times. ","no","<p>Correct!</p>","null","","","","","","",""
"","null","html-keyboard-response","288","2.0.0","238098","puza1jfd4px","bigger","axolotl","to test whether inconcruent and congurnet affected reaction times. ","no","<div style=""font-size:60px;"">+</div>","null","","","","","","",""
"","361","image-keyboard-response","289","2.0.0","238460","puza1jfd4px","bigger","axolotl","to test whether inconcruent and congurnet affected reaction times. ","no","stimuli/23-Inongruent.jpg","m","","","","","right","m","true"
"","null","html-keyboard-response","290","2.0.0","239368","puza1jfd4px","bigger","axolotl","to test whether inconcruent and congurnet affected reaction times. ","no","<p>Correct!</p>","null","","","","","","",""
"","null","html-keyboard-response","291","2.0.0","240376","puza1jfd4px","bigger","axolotl","to test whether inconcruent and congurnet affected reaction times. ","no","<div style=""font-size:60px;"">+</div>","null","","","","","","",""
"","354","image-keyboard-response","292","2.0.0","240730","puza1jfd4px","bigger","axolotl","to test whether inconcruent and congurnet affected reaction times. ","no","stimuli/18-Congruent.jpg","z","","","","","left","z","true"
"","null","html-keyboard-response","293","2.0.0","241632","puza1jfd4px","bigger","axolotl","to test whether inconcruent and congurnet affected reaction times. ","no","<p>Correct!</p>","null","","","","","","",""
"","null","html-keyboard-response","294","2.0.0","242648","puza1jfd4px","bigger","axolotl","to test whether inconcruent and congurnet affected reaction times. ","no","<div style=""font-size:60px;"">+</div>","null","","","","","","",""
"","380","image-keyboard-response","295","2.0.0","243029","puza1jfd4px","bigger","axolotl","to test whether inconcruent and congurnet affected reaction times. ","no","stimuli/12-Inongruent.jpg","m","","","","","right","m","true"
"","null","html-keyboard-response","296","2.0.0","243934","puza1jfd4px","bigger","axolotl","to test whether inconcruent and congurnet affected reaction times. ","no","<p>Correct!</p>","null","","","","","","",""
"","null","html-keyboard-response","297","2.0.0","244941","puza1jfd4px","bigger","axolotl","to test whether inconcruent and congurnet affected reaction times. ","no","<div style=""font-size:60px;"">+</div>","null","","","","","","",""
"","422","image-keyboard-response","298","2.0.0","245365","puza1jfd4px","bigger","axolotl","to test whether inconcruent and congurnet affected reaction times. ","no","stimuli/6-Inongruent.jpg","m","","","","","right","m","true"
"","null","html-keyboard-response","299","2.0.0","246271","puza1jfd4px","bigger","axolotl","to test whether inconcruent and congurnet affected reaction times. ","no","<p>Correct!</p>","null","","","","","","",""
"","null","html-keyboard-response","300","2.0.0","247282","puza1jfd4px","bigger","axolotl","to test whether inconcruent and congurnet affected reaction times. ","no","<div style=""font-size:60px;"">+</div>","null","","","","","","",""
"","346","image-keyboard-response","301","2.0.0","247629","puza1jfd4px","bigger","axolotl","to test whether inconcruent and congurnet affected reaction times. ","no","stimuli/32-Congruent.jpg","z","","","","","left","z","true"
"","null","html-keyboard-response","302","2.0.0","248532","puza1jfd4px","bigger","axolotl","to test whether inconcruent and congurnet affected reaction times. ","no","<p>Correct!</p>","null","","","","","","",""
"","null","html-keyboard-response","303","2.0.0","249547","puza1jfd4px","bigger","axolotl","to test whether inconcruent and congurnet affected reaction times. ","no","<div style=""font-size:60px;"">+</div>","null","","","","","","",""
"","371","image-keyboard-response","304","2.0.0","249919","puza1jfd4px","bigger","axolotl","to test whether inconcruent and congurnet affected reaction times. ","no","stimuli/33-Inongruent.jpg","m","","","","","right","m","true"
"","null","html-keyboard-response","305","2.0.0","250822","puza1jfd4px","bigger","axolotl","to test whether inconcruent and congurnet affected reaction times. ","no","<p>Correct!</p>","null","","","","","","",""
"","null","html-keyboard-response","306","2.0.0","251829","puza1jfd4px","bigger","axolotl","to test whether inconcruent and congurnet affected reaction times. ","no","<div style=""font-size:60px;"">+</div>","null","","","","","","",""
"","339","image-keyboard-response","307","2.0.0","252169","puza1jfd4px","bigger","axolotl","to test whether inconcruent and congurnet affected reaction times. ","no","stimuli/19-Inongruent.jpg","m","","","","","right","m","true"
"","null","html-keyboard-response","308","2.0.0","253077","puza1jfd4px","bigger","axolotl","to test whether inconcruent and congurnet affected reaction times. ","no","<p>Correct!</p>","null","","","","","","",""
"","null","html-keyboard-response","309","2.0.0","254085","puza1jfd4px","bigger","axolotl","to test whether inconcruent and congurnet affected reaction times. ","no","<div style=""font-size:60px;"">+</div>","null","","","","","","",""
"","339","image-keyboard-response","310","2.0.0","254425","puza1jfd4px","bigger","axolotl","to test whether inconcruent and congurnet affected reaction times. ","no","stimuli/7-Inongruent.jpg","m","","","","","right","m","true"
"","null","html-keyboard-response","311","2.0.0","255335","puza1jfd4px","bigger","axolotl","to test whether inconcruent and congurnet affected reaction times. ","no","<p>Correct!</p>","null","","","","","","",""
"","null","html-keyboard-response","312","2.0.0","256336","puza1jfd4px","bigger","axolotl","to test whether inconcruent and congurnet affected reaction times. ","no","<div style=""font-size:60px;"">+</div>","null","","","","","","",""
"","315","image-keyboard-response","313","2.0.0","256653","puza1jfd4px","bigger","axolotl","to test whether inconcruent and congurnet affected reaction times. ","no","stimuli/3-Congruent.jpg","z","","","","","left","z","true"
"","null","html-keyboard-response","314","2.0.0","257561","puza1jfd4px","bigger","axolotl","to test whether inconcruent and congurnet affected reaction times. ","no","<p>Correct!</p>","null","","","","","","",""
"","null","html-keyboard-response","315","2.0.0","258576","puza1jfd4px","bigger","axolotl","to test whether inconcruent and congurnet affected reaction times. ","no","<div style=""font-size:60px;"">+</div>","null","","","","","","",""
"","289","image-keyboard-response","316","2.0.0","258866","puza1jfd4px","bigger","axolotl","to test whether inconcruent and congurnet affected reaction times. ","no","stimuli/31-Congruent.jpg","z","","","","","left","z","true"
"","null","html-keyboard-response","317","2.0.0","259777","puza1jfd4px","bigger","axolotl","to test whether inconcruent and congurnet affected reaction times. ","no","<p>Correct!</p>","null","","","","","","",""
"","null","html-keyboard-response","318","2.0.0","260780","puza1jfd4px","bigger","axolotl","to test whether inconcruent and congurnet affected reaction times. ","no","<div style=""font-size:60px;"">+</div>","null","","","","","","",""
"","330","image-keyboard-response","319","2.0.0","261112","puza1jfd4px","bigger","axolotl","to test whether inconcruent and congurnet affected reaction times. ","no","stimuli/33-Inongruent.jpg","m","","","","","right","m","true"
"","null","html-keyboard-response","320","2.0.0","262013","puza1jfd4px","bigger","axolotl","to test whether inconcruent and congurnet affected reaction times. ","no","<p>Correct!</p>","null","","","","","","",""
"","null","html-keyboard-response","321","2.0.0","263018","puza1jfd4px","bigger","axolotl","to test whether inconcruent and congurnet affected reaction times. ","no","<div style=""font-size:60px;"">+</div>","null","","","","","","",""
"","344","image-keyboard-response","322","2.0.0","263363","puza1jfd4px","bigger","axolotl","to test whether inconcruent and congurnet affected reaction times. ","no","stimuli/30-Inongruent.jpg","m","","","","","right","m","true"
"","null","html-keyboard-response","323","2.0.0","264268","puza1jfd4px","bigger","axolotl","to test whether inconcruent and congurnet affected reaction times. ","no","<p>Correct!</p>","null","","","","","","",""
"","null","html-keyboard-response","324","2.0.0","265274","puza1jfd4px","bigger","axolotl","to test whether inconcruent and congurnet affected reaction times. ","no","<div style=""font-size:60px;"">+</div>","null","","","","","","",""
"","323","image-keyboard-response","325","2.0.0","265598","puza1jfd4px","bigger","axolotl","to test whether inconcruent and congurnet affected reaction times. ","no","stimuli/34-Inongruent.jpg","m","","","","","right","m","true"
"","null","html-keyboard-response","326","2.0.0","266507","puza1jfd4px","bigger","axolotl","to test whether inconcruent and congurnet affected reaction times. ","no","<p>Correct!</p>","null","","","","","","",""
"","null","html-keyboard-response","327","2.0.0","267511","puza1jfd4px","bigger","axolotl","to test whether inconcruent and congurnet affected reaction times. ","no","<div style=""font-size:60px;"">+</div>","null","","","","","","",""
"","470","image-keyboard-response","328","2.0.0","267983","puza1jfd4px","bigger","axolotl","to test whether inconcruent and congurnet affected reaction times. ","no","stimuli/31-Inongruent.jpg","m","","","","","right","m","true"
"","null","html-keyboard-response","329","2.0.0","268890","puza1jfd4px","bigger","axolotl","to test whether inconcruent and congurnet affected reaction times. ","no","<p>Correct!</p>","null","","","","","","",""
"","null","html-keyboard-response","330","2.0.0","269900","puza1jfd4px","bigger","axolotl","to test whether inconcruent and congurnet affected reaction times. ","no","<div style=""font-size:60px;"">+</div>","null","","","","","","",""
"","307","image-keyboard-response","331","2.0.0","270208","puza1jfd4px","bigger","axolotl","to test whether inconcruent and congurnet affected reaction times. ","no","stimuli/3-Inongruent.jpg","m","","","","","right","m","true"
"","null","html-keyboard-response","332","2.0.0","271113","puza1jfd4px","bigger","axolotl","to test whether inconcruent and congurnet affected reaction times. ","no","<p>Correct!</p>","null","","","","","","",""
"","null","html-keyboard-response","333","2.0.0","272118","puza1jfd4px","bigger","axolotl","to test whether inconcruent and congurnet affected reaction times. ","no","<div style=""font-size:60px;"">+</div>","null","","","","","","",""
"","369","image-keyboard-response","334","2.0.0","272489","puza1jfd4px","bigger","axolotl","to test whether inconcruent and congurnet affected reaction times. ","no","stimuli/20-Inongruent.jpg","m","","","","","right","m","true"
"","null","html-keyboard-response","335","2.0.0","273400","puza1jfd4px","bigger","axolotl","to test whether inconcruent and congurnet affected reaction times. ","no","<p>Correct!</p>","null","","","","","","",""
"","null","html-keyboard-response","336","2.0.0","274405","puza1jfd4px","bigger","axolotl","to test whether inconcruent and congurnet affected reaction times. ","no","<div style=""font-size:60px;"">+</div>","null","","","","","","",""
"","271","image-keyboard-response","337","2.0.0","274677","puza1jfd4px","bigger","axolotl","to test whether inconcruent and congurnet affected reaction times. ","no","stimuli/15-Inongruent.jpg","m","","","","","right","m","true"
"","null","html-keyboard-response","338","2.0.0","275586","puza1jfd4px","bigger","axolotl","to test whether inconcruent and congurnet affected reaction times. ","no","<p>Correct!</p>","null","","","","","","",""
"","null","html-keyboard-response","339","2.0.0","276600","puza1jfd4px","bigger","axolotl","to test whether inconcruent and congurnet affected reaction times. ","no","<div style=""font-size:60px;"">+</div>","null","","","","","","",""
"","311","image-keyboard-response","340","2.0.0","276912","puza1jfd4px","bigger","axolotl","to test whether inconcruent and congurnet affected reaction times. ","no","stimuli/9-Congruent.jpg","z","","","","","left","z","true"
"","null","html-keyboard-response","341","2.0.0","277818","puza1jfd4px","bigger","axolotl","to test whether inconcruent and congurnet affected reaction times. ","no","<p>Correct!</p>","null","","","","","","",""
"","null","html-keyboard-response","342","2.0.0","278828","puza1jfd4px","bigger","axolotl","to test whether inconcruent and congurnet affected reaction times. ","no","<div style=""font-size:60px;"">+</div>","null","","","","","","",""
"","280","image-keyboard-response","343","2.0.0","279109","puza1jfd4px","bigger","axolotl","to test whether inconcruent and congurnet affected reaction times. ","no","stimuli/1-Congruent.jpg","z","","","","","left","z","true"
"","null","html-keyboard-response","344","2.0.0","280019","puza1jfd4px","bigger","axolotl","to test whether inconcruent and congurnet affected reaction times. ","no","<p>Correct!</p>","null","","","","","","",""
"","null","html-keyboard-response","345","2.0.0","281024","puza1jfd4px","bigger","axolotl","to test whether inconcruent and congurnet affected reaction times. ","no","<div style=""font-size:60px;"">+</div>","null","","","","","","",""
"","374","image-keyboard-response","346","2.0.0","281399","puza1jfd4px","bigger","axolotl","to test whether inconcruent and congurnet affected reaction times. ","no","stimuli/2-Inongruent.jpg","m","","","","","right","m","true"
"","null","html-keyboard-response","347","2.0.0","282304","puza1jfd4px","bigger","axolotl","to test whether inconcruent and congurnet affected reaction times. ","no","<p>Correct!</p>","null","","","","","","",""
"","null","html-keyboard-response","348","2.0.0","283313","puza1jfd4px","bigger","axolotl","to test whether inconcruent and congurnet affected reaction times. ","no","<div style=""font-size:60px;"">+</div>","null","","","","","","",""
"","326","image-keyboard-response","349","2.0.0","283641","puza1jfd4px","bigger","axolotl","to test whether inconcruent and congurnet affected reaction times. ","no","stimuli/28-Congruent.jpg","z","","","","","left","z","true"
"","null","html-keyboard-response","350","2.0.0","284545","puza1jfd4px","bigger","axolotl","to test whether inconcruent and congurnet affected reaction times. ","no","<p>Correct!</p>","null","","","","","","",""
"","null","html-keyboard-response","351","2.0.0","285555","puza1jfd4px","bigger","axolotl","to test whether inconcruent and congurnet affected reaction times. ","no","<div style=""font-size:60px;"">+</div>","null","","","","","","",""
"","341","image-keyboard-response","352","2.0.0","285898","puza1jfd4px","bigger","axolotl","to test whether inconcruent and congurnet affected reaction times. ","no","stimuli/18-Inongruent.jpg","m","","","","","right","m","true"
"","null","html-keyboard-response","353","2.0.0","286803","puza1jfd4px","bigger","axolotl","to test whether inconcruent and congurnet affected reaction times. ","no","<p>Correct!</p>","null","","","","","","",""
"","null","html-keyboard-response","354","2.0.0","287820","puza1jfd4px","bigger","axolotl","to test whether inconcruent and congurnet affected reaction times. ","no","<div style=""font-size:60px;"">+</div>","null","","","","","","",""
"","301","image-keyboard-response","355","2.0.0","288122","puza1jfd4px","bigger","axolotl","to test whether inconcruent and congurnet affected reaction times. ","no","stimuli/5-Congruent.jpg","z","","","","","left","z","true"
"","null","html-keyboard-response","356","2.0.0","289024","puza1jfd4px","bigger","axolotl","to test whether inconcruent and congurnet affected reaction times. ","no","<p>Correct!</p>","null","","","","","","",""
"","null","html-keyboard-response","357","2.0.0","290033","puza1jfd4px","bigger","axolotl","to test whether inconcruent and congurnet affected reaction times. ","no","<div style=""font-size:60px;"">+</div>","null","","","","","","",""
"","383","image-keyboard-response","358","2.0.0","290417","puza1jfd4px","bigger","axolotl","to test whether inconcruent and congurnet affected reaction times. ","no","stimuli/15-Congruent.jpg","z","","","","","left","z","true"
"","null","html-keyboard-response","359","2.0.0","291321","puza1jfd4px","bigger","axolotl","to test whether inconcruent and congurnet affected reaction times. ","no","<p>Correct!</p>","null","","","","","","",""
"","null","html-keyboard-response","360","2.0.0","292329","puza1jfd4px","bigger","axolotl","to test whether inconcruent and congurnet affected reaction times. ","no","<div style=""font-size:60px;"">+</div>","null","","","","","","",""
"","318","image-keyboard-response","361","2.0.0","292648","puza1jfd4px","bigger","axolotl","to test whether inconcruent and congurnet affected reaction times. ","no","stimuli/14-Congruent.jpg","z","","","","","left","z","true"
"","null","html-keyboard-response","362","2.0.0","293555","puza1jfd4px","bigger","axolotl","to test whether inconcruent and congurnet affected reaction times. ","no","<p>Correct!</p>","null","","","","","","",""
"","null","html-keyboard-response","363","2.0.0","294565","puza1jfd4px","bigger","axolotl","to test whether inconcruent and congurnet affected reaction times. ","no","<div style=""font-size:60px;"">+</div>","null","","","","","","",""
"","315","image-keyboard-response","364","2.0.0","294881","puza1jfd4px","bigger","axolotl","to test whether inconcruent and congurnet affected reaction times. ","no","stimuli/24-Inongruent.jpg","m","","","","","right","m","true"
"","null","html-keyboard-response","365","2.0.0","295791","puza1jfd4px","bigger","axolotl","to test whether inconcruent and congurnet affected reaction times. ","no","<p>Correct!</p>","null","","","","","","",""
"","null","html-keyboard-response","366","2.0.0","296793","puza1jfd4px","bigger","axolotl","to test whether inconcruent and congurnet affected reaction times. ","no","<div style=""font-size:60px;"">+</div>","null","","","","","","",""
"","432","image-keyboard-response","367","2.0.0","297226","puza1jfd4px","bigger","axolotl","to test whether inconcruent and congurnet affected reaction times. ","no","stimuli/17-Inongruent.jpg","m","","","","","right","m","true"
"","null","html-keyboard-response","368","2.0.0","298132","puza1jfd4px","bigger","axolotl","to test whether inconcruent and congurnet affected reaction times. ","no","<p>Correct!</p>","null","","","","","","",""
"","null","html-keyboard-response","369","2.0.0","299138","puza1jfd4px","bigger","axolotl","to test whether inconcruent and congurnet affected reaction times. ","no","<div style=""font-size:60px;"">+</div>","null","","","","","","",""
"","356","image-keyboard-response","370","2.0.0","299495","puza1jfd4px","bigger","axolotl","to test whether inconcruent and congurnet affected reaction times. ","no","stimuli/27-Inongruent.jpg","m","","","","","right","m","true"
"","null","html-keyboard-response","371","2.0.0","300404","puza1jfd4px","bigger","axolotl","to test whether inconcruent and congurnet affected reaction times. ","no","<p>Correct!</p>","null","","","","","","",""
"","null","html-keyboard-response","372","2.0.0","301404","puza1jfd4px","bigger","axolotl","to test whether inconcruent and congurnet affected reaction times. ","no","<div style=""font-size:60px;"">+</div>","null","","","","","","",""
"","257","image-keyboard-response","373","2.0.0","301663","puza1jfd4px","bigger","axolotl","to test whether inconcruent and congurnet affected reaction times. ","no","stimuli/21-Congruent.jpg","z","","","","","left","z","true"
"","null","html-keyboard-response","374","2.0.0","302569","puza1jfd4px","bigger","axolotl","to test whether inconcruent and congurnet affected reaction times. ","no","<p>Correct!</p>","null","","","","","","",""
"","null","html-keyboard-response","375","2.0.0","303577","puza1jfd4px","bigger","axolotl","to test whether inconcruent and congurnet affected reaction times. ","no","<div style=""font-size:60px;"">+</div>","null","","","","","","",""
"","316","image-keyboard-response","376","2.0.0","303894","puza1jfd4px","bigger","axolotl","to test whether inconcruent and congurnet affected reaction times. ","no","stimuli/5-Inongruent.jpg","m","","","","","right","m","true"
"","null","html-keyboard-response","377","2.0.0","304805","puza1jfd4px","bigger","axolotl","to test whether inconcruent and congurnet affected reaction times. ","no","<p>Correct!</p>","null","","","","","","",""
"","null","html-keyboard-response","378","2.0.0","305809","puza1jfd4px","bigger","axolotl","to test whether inconcruent and congurnet affected reaction times. ","no","<div style=""font-size:60px;"">+</div>","null","","","","","","",""
"","329","image-keyboard-response","379","2.0.0","306140","puza1jfd4px","bigger","axolotl","to test whether inconcruent and congurnet affected reaction times. ","no","stimuli/19-Congruent.jpg","z","","","","","left","z","true"
"","null","html-keyboard-response","380","2.0.0","307042","puza1jfd4px","bigger","axolotl","to test whether inconcruent and congurnet affected reaction times. ","no","<p>Correct!</p>","null","","","","","","",""
"","null","html-keyboard-response","381","2.0.0","308058","puza1jfd4px","bigger","axolotl","to test whether inconcruent and congurnet affected reaction times. ","no","<div style=""font-size:60px;"">+</div>","null","","","","","","",""
"","329","image-keyboard-response","382","2.0.0","308388","puza1jfd4px","bigger","axolotl","to test whether inconcruent and congurnet affected reaction times. ","no","stimuli/2-Inongruent.jpg","m","","","","","right","m","true"
"","null","html-keyboard-response","383","2.0.0","309305","puza1jfd4px","bigger","axolotl","to test whether inconcruent and congurnet affected reaction times. ","no","<p>Correct!</p>","null","","","","","","",""
"","null","html-keyboard-response","384","2.0.0","310312","puza1jfd4px","bigger","axolotl","to test whether inconcruent and congurnet affected reaction times. ","no","<div style=""font-size:60px;"">+</div>","null","","","","","","",""
"","314","image-keyboard-response","385","2.0.0","310627","puza1jfd4px","bigger","axolotl","to test whether inconcruent and congurnet affected reaction times. ","no","stimuli/1-Congruent.jpg","z","","","","","left","z","true"
"","null","html-keyboard-response","386","2.0.0","311540","puza1jfd4px","bigger","axolotl","to test whether inconcruent and congurnet affected reaction times. ","no","<p>Correct!</p>","null","","","","","","",""
"","null","html-keyboard-response","387","2.0.0","312555","puza1jfd4px","bigger","axolotl","to test whether inconcruent and congurnet affected reaction times. ","no","<div style=""font-size:60px;"">+</div>","null","","","","","","",""
"","301","image-keyboard-response","388","2.0.0","312857","puza1jfd4px","bigger","axolotl","to test whether inconcruent and congurnet affected reaction times. ","no","stimuli/20-Congruent.jpg","z","","","","","left","z","true"
"","null","html-keyboard-response","389","2.0.0","313762","puza1jfd4px","bigger","axolotl","to test whether inconcruent and congurnet affected reaction times. ","no","<p>Correct!</p>","null","","","","","","",""
"","null","html-keyboard-response","390","2.0.0","314767","puza1jfd4px","bigger","axolotl","to test whether inconcruent and congurnet affected reaction times. ","no","<div style=""font-size:60px;"">+</div>","null","","","","","","",""
"","335","image-keyboard-response","391","2.0.0","315104","puza1jfd4px","bigger","axolotl","to test whether inconcruent and congurnet affected reaction times. ","no","stimuli/23-Inongruent.jpg","m","","","","","right","m","true"
"","null","html-keyboard-response","392","2.0.0","316010","puza1jfd4px","bigger","axolotl","to test whether inconcruent and congurnet affected reaction times. ","no","<p>Correct!</p>","null","","","","","","",""
"","null","html-keyboard-response","393","2.0.0","317013","puza1jfd4px","bigger","axolotl","to test whether inconcruent and congurnet affected reaction times. ","no","<div style=""font-size:60px;"">+</div>","null","","","","","","",""
"","314","image-keyboard-response","394","2.0.0","317328","puza1jfd4px","bigger","axolotl","to test whether inconcruent and congurnet affected reaction times. ","no","stimuli/17-Congruent.jpg","z","","","","","left","z","true"
"","null","html-keyboard-response","395","2.0.0","318232","puza1jfd4px","bigger","axolotl","to test whether inconcruent and congurnet affected reaction times. ","no","<p>Correct!</p>","null","","","","","","",""
"","null","html-keyboard-response","396","2.0.0","319241","puza1jfd4px","bigger","axolotl","to test whether inconcruent and congurnet affected reaction times. ","no","<div style=""font-size:60px;"">+</div>","null","","","","","","",""
"","2901","image-keyboard-response","397","2.0.0","322143","puza1jfd4px","bigger","axolotl","to test whether inconcruent and congurnet affected reaction times. ","no","stimuli/4-Inongruent.jpg","m","","","","","right","m","true"
"","null","html-keyboard-response","398","2.0.0","323052","puza1jfd4px","bigger","axolotl","to test whether inconcruent and congurnet affected reaction times. ","no","<p>Correct!</p>","null","","","","","","",""
"","null","html-keyboard-response","399","2.0.0","324060","puza1jfd4px","bigger","axolotl","to test whether inconcruent and congurnet affected reaction times. ","no","<div style=""font-size:60px;"">+</div>","null","","","","","","",""
"","341","image-keyboard-response","400","2.0.0","324402","puza1jfd4px","bigger","axolotl","to test whether inconcruent and congurnet affected reaction times. ","no","stimuli/28-Inongruent.jpg","m","","","","","right","m","true"
"","null","html-keyboard-response","401","2.0.0","325307","puza1jfd4px","bigger","axolotl","to test whether inconcruent and congurnet affected reaction times. ","no","<p>Correct!</p>","null","","","","","","",""
"","null","html-keyboard-response","402","2.0.0","326311","puza1jfd4px","bigger","axolotl","to test whether inconcruent and congurnet affected reaction times. ","no","<div style=""font-size:60px;"">+</div>","null","","","","","","",""
"","314","image-keyboard-response","403","2.0.0","326626","puza1jfd4px","bigger","axolotl","to test whether inconcruent and congurnet affected reaction times. ","no","stimuli/24-Congruent.jpg","z","","","","","left","z","true"
"","null","html-keyboard-response","404","2.0.0","327530","puza1jfd4px","bigger","axolotl","to test whether inconcruent and congurnet affected reaction times. ","no","<p>Correct!</p>","null","","","","","","",""
"","null","html-keyboard-response","405","2.0.0","328543","puza1jfd4px","bigger","axolotl","to test whether inconcruent and congurnet affected reaction times. ","no","<div style=""font-size:60px;"">+</div>","null","","","","","","",""
"","333","image-keyboard-response","406","2.0.0","328876","puza1jfd4px","bigger","axolotl","to test whether inconcruent and congurnet affected reaction times. ","no","stimuli/30-Congruent.jpg","z","","","","","left","z","true"
"","null","html-keyboard-response","407","2.0.0","329777","puza1jfd4px","bigger","axolotl","to test whether inconcruent and congurnet affected reaction times. ","no","<p>Correct!</p>","null","","","","","","",""
"","null","html-keyboard-response","408","2.0.0","330789","puza1jfd4px","bigger","axolotl","to test whether inconcruent and congurnet affected reaction times. ","no","<div style=""font-size:60px;"">+</div>","null","","","","","","",""
"","466","image-keyboard-response","409","2.0.0","331256","puza1jfd4px","bigger","axolotl","to test whether inconcruent and congurnet affected reaction times. ","no","stimuli/5-Congruent.jpg","m","","","","","left","z","false"
"","967","html-keyboard-response","410","2.0.0","332224","puza1jfd4px","bigger","axolotl","to test whether inconcruent and congurnet affected reaction times. ","no","<p>Incorrect.</p><p>Remember to select the <b>bigger</b> image.</p><p>Continuing in 5 seconds...</p>","z","","","","","","",""
"","null","html-keyboard-response","411","2.0.0","333226","puza1jfd4px","bigger","axolotl","to test whether inconcruent and congurnet affected reaction times. ","no","<div style=""font-size:60px;"">+</div>","null","","","","","","",""
"","309","image-keyboard-response","412","2.0.0","333535","puza1jfd4px","bigger","axolotl","to test whether inconcruent and congurnet affected reaction times. ","no","stimuli/14-Congruent.jpg","z","","","","","left","z","true"
"","null","html-keyboard-response","413","2.0.0","334451","puza1jfd4px","bigger","axolotl","to test whether inconcruent and congurnet affected reaction times. ","no","<p>Correct!</p>","null","","","","","","",""
"","null","html-keyboard-response","414","2.0.0","335467","puza1jfd4px","bigger","axolotl","to test whether inconcruent and congurnet affected reaction times. ","no","<div style=""font-size:60px;"">+</div>","null","","","","","","",""
"","311","image-keyboard-response","415","2.0.0","335779","puza1jfd4px","bigger","axolotl","to test whether inconcruent and congurnet affected reaction times. ","no","stimuli/33-Congruent.jpg","z","","","","","left","z","true"
"","null","html-keyboard-response","416","2.0.0","336690","puza1jfd4px","bigger","axolotl","to test whether inconcruent and congurnet affected reaction times. ","no","<p>Correct!</p>","null","","","","","","",""
"","null","html-keyboard-response","417","2.0.0","337700","puza1jfd4px","bigger","axolotl","to test whether inconcruent and congurnet affected reaction times. ","no","<div style=""font-size:60px;"">+</div>","null","","","","","","",""
"","479","image-keyboard-response","418","2.0.0","338180","puza1jfd4px","bigger","axolotl","to test whether inconcruent and congurnet affected reaction times. ","no","stimuli/26-Inongruent.jpg","m","","","","","right","m","true"
"","null","html-keyboard-response","419","2.0.0","339097","puza1jfd4px","bigger","axolotl","to test whether inconcruent and congurnet affected reaction times. ","no","<p>Correct!</p>","null","","","","","","",""
"","null","html-keyboard-response","420","2.0.0","340104","puza1jfd4px","bigger","axolotl","to test whether inconcruent and congurnet affected reaction times. ","no","<div style=""font-size:60px;"">+</div>","null","","","","","","",""
"","1468","image-keyboard-response","421","2.0.0","341573","puza1jfd4px","bigger","axolotl","to test whether inconcruent and congurnet affected reaction times. ","no","stimuli/34-Congruent.jpg","z","","","","","left","z","true"
"","null","html-keyboard-response","422","2.0.0","342482","puza1jfd4px","bigger","axolotl","to test whether inconcruent and congurnet affected reaction times. ","no","<p>Correct!</p>","null","","","","","","",""
"","null","html-keyboard-response","423","2.0.0","343497","puza1jfd4px","bigger","axolotl","to test whether inconcruent and congurnet affected reaction times. ","no","<div style=""font-size:60px;"">+</div>","null","","","","","","",""
"","329","image-keyboard-response","424","2.0.0","343827","puza1jfd4px","bigger","axolotl","to test whether inconcruent and congurnet affected reaction times. ","no","stimuli/32-Congruent.jpg","z","","","","","left","z","true"
"","null","html-keyboard-response","425","2.0.0","344733","puza1jfd4px","bigger","axolotl","to test whether inconcruent and congurnet affected reaction times. ","no","<p>Correct!</p>","null","","","","","","",""
"","null","html-keyboard-response","426","2.0.0","345738","puza1jfd4px","bigger","axolotl","to test whether inconcruent and congurnet affected reaction times. ","no","<div style=""font-size:60px;"">+</div>","null","","","","","","",""
"","323","image-keyboard-response","427","2.0.0","346062","puza1jfd4px","bigger","axolotl","to test whether inconcruent and congurnet affected reaction times. ","no","stimuli/36-Inongruent.jpg","m","","","","","right","m","true"
"","null","html-keyboard-response","428","2.0.0","346967","puza1jfd4px","bigger","axolotl","to test whether inconcruent and congurnet affected reaction times. ","no","<p>Correct!</p>","null","","","","","","",""
"","null","html-keyboard-response","429","2.0.0","347975","puza1jfd4px","bigger","axolotl","to test whether inconcruent and congurnet affected reaction times. ","no","<div style=""font-size:60px;"">+</div>","null","","","","","","",""
"","310","image-keyboard-response","430","2.0.0","348286","puza1jfd4px","bigger","axolotl","to test whether inconcruent and congurnet affected reaction times. ","no","stimuli/18-Congruent.jpg","z","","","","","left","z","true"
"","null","html-keyboard-response","431","2.0.0","349189","puza1jfd4px","bigger","axolotl","to test whether inconcruent and congurnet affected reaction times. ","no","<p>Correct!</p>","null","","","","","","",""
"","null","html-keyboard-response","432","2.0.0","350204","puza1jfd4px","bigger","axolotl","to test whether inconcruent and congurnet affected reaction times. ","no","<div style=""font-size:60px;"">+</div>","null","","","","","","",""
"","356","image-keyboard-response","433","2.0.0","350561","puza1jfd4px","bigger","axolotl","to test whether inconcruent and congurnet affected reaction times. ","no","stimuli/16-Inongruent.jpg","m","","","","","right","m","true"
"","null","html-keyboard-response","434","2.0.0","351473","puza1jfd4px","bigger","axolotl","to test whether inconcruent and congurnet affected reaction times. ","no","<p>Correct!</p>","null","","","","","","",""
"","null","html-keyboard-response","435","2.0.0","352488","puza1jfd4px","bigger","axolotl","to test whether inconcruent and congurnet affected reaction times. ","no","<div style=""font-size:60px;"">+</div>","null","","","","","","",""
"","301","image-keyboard-response","436","2.0.0","352790","puza1jfd4px","bigger","axolotl","to test whether inconcruent and congurnet affected reaction times. ","no","stimuli/10-Congruent.jpg","z","","","","","left","z","true"
"","null","html-keyboard-response","437","2.0.0","353701","puza1jfd4px","bigger","axolotl","to test whether inconcruent and congurnet affected reaction times. ","no","<p>Correct!</p>","null","","","","","","",""
