"success","rt","trial_type","trial_index","plugin_version","time_elapsed","random_id","condition","participant","participant_thoughts","participant_difficulties","stimulus","response","timeout","failed_images","failed_audio","failed_video","correct_response","correct_response_key","correct"
"true","1019","fullscreen","0","null","2030","pv2ysadqlm6","smaller","A17689315","Check perception times?","no","","","","","","","","",""
"","1401","html-keyboard-response","1","2.0.0","3432","pv2ysadqlm6","smaller","A17689315","Check perception times?","no","Welcome to the Size Stroop experiment. Press any key to begin.","d","","","","","","",""
"","null","html-keyboard-response","2","2.0.0","4443","pv2ysadqlm6","smaller","A17689315","Check perception times?","no","This trial will be in fullscreen mode.","null","","","","","","",""
"","3453","survey-text","3","2.0.0","7899","pv2ysadqlm6","smaller","A17689315","Check perception times?","no","","{""participant_id"":""A17689315""}","","","","","","",""
"","6213","html-keyboard-response","4","2.0.0","14112","pv2ysadqlm6","smaller","A17689315","Check perception times?","no","<p>In this experiment, two images will appear on the screen. Identify the <strong>smaller</strong> image.</p>
              <p>If the image on the left is smaller, press ""z"". If the image on the right is smaller, press ""m"".</p>
              <p>Press any key to begin.</p>","m","","","","","","",""
"true","","preload","5","2.0.0","14604","pv2ysadqlm6","smaller","A17689315","Check perception times?","no","","","false","[]","[]","[]","","",""
"","null","html-keyboard-response","6","2.0.0","15613","pv2ysadqlm6","smaller","A17689315","Check perception times?","no","<div style=""font-size:60px;"">+</div>","null","","","","","","",""
"","528","image-keyboard-response","7","2.0.0","16145","pv2ysadqlm6","smaller","A17689315","Check perception times?","no","stimuli/11-Inongruent.jpg","z","","","","","left","z","true"
"","null","html-keyboard-response","8","2.0.0","17047","pv2ysadqlm6","smaller","A17689315","Check perception times?","no","<p>Correct!</p>","null","","","","","","",""
"","null","html-keyboard-response","9","2.0.0","18063","pv2ysadqlm6","smaller","A17689315","Check perception times?","no","<div style=""font-size:60px;"">+</div>","null","","","","","","",""
"","468","image-keyboard-response","10","2.0.0","18532","pv2ysadqlm6","smaller","A17689315","Check perception times?","no","stimuli/16-Inongruent.jpg","z","","","","","left","z","true"
"","null","html-keyboard-response","11","2.0.0","19435","pv2ysadqlm6","smaller","A17689315","Check perception times?","no","<p>Correct!</p>","null","","","","","","",""
"","null","html-keyboard-response","12","2.0.0","20451","pv2ysadqlm6","smaller","A17689315","Check perception times?","no","<div style=""font-size:60px;"">+</div>","null","","","","","","",""
"","459","image-keyboard-response","13","2.0.0","20911","pv2ysadqlm6","smaller","A17689315","Check perception times?","no","stimuli/13-Inongruent.jpg","z","","","","","left","z","true"
"","null","html-keyboard-response","14","2.0.0","21826","pv2ysadqlm6","smaller","A17689315","Check perception times?","no","<p>Correct!</p>","null","","","","","","",""
"","null","html-keyboard-response","15","2.0.0","22840","pv2ysadqlm6","smaller","A17689315","Check perception times?","no","<div style=""font-size:60px;"">+</div>","null","","","","","","",""
"","409","image-keyboard-response","16","2.0.0","23250","pv2ysadqlm6","smaller","A17689315","Check perception times?","no","stimuli/27-Congruent.jpg","m","","","","","right","m","true"
"","null","html-keyboard-response","17","2.0.0","24152","pv2ysadqlm6","smaller","A17689315","Check perception times?","no","<p>Correct!</p>","null","","","","","","",""
"","null","html-keyboard-response","18","2.0.0","25166","pv2ysadqlm6","smaller","A17689315","Check perception times?","no","<div style=""font-size:60px;"">+</div>","null","","","","","","",""
"","423","image-keyboard-response","19","2.0.0","25590","pv2ysadqlm6","smaller","A17689315","Check perception times?","no","stimuli/8-Congruent.jpg","m","","","","","right","m","true"
"","null","html-keyboard-response","20","2.0.0","26491","pv2ysadqlm6","smaller","A17689315","Check perception times?","no","<p>Correct!</p>","null","","","","","","",""
"","null","html-keyboard-response","21","2.0.0","27507","pv2ysadqlm6","smaller","A17689315","Check perception times?","no","<div style=""font-size:60px;"">+</div>","null","","","","","","",""
"","413","image-keyboard-response","22","2.0.0","27922","pv2ysadqlm6","smaller","A17689315","Check perception times?","no","stimuli/36-Inongruent.jpg","z","","","","","left","z","true"
"","null","html-keyboard-response","23","2.0.0","28830","pv2ysadqlm6","smaller","A17689315","Check perception times?","no","<p>Correct!</p>","null","","","","","","",""
"","null","html-keyboard-response","24","2.0.0","29845","pv2ysadqlm6","smaller","A17689315","Check perception times?","no","<div style=""font-size:60px;"">+</div>","null","","","","","","",""
"","407","image-keyboard-response","25","2.0.0","30254","pv2ysadqlm6","smaller","A17689315","Check perception times?","no","stimuli/26-Inongruent.jpg","z","","","","","left","z","true"
"","null","html-keyboard-response","26","2.0.0","31158","pv2ysadqlm6","smaller","A17689315","Check perception times?","no","<p>Correct!</p>","null","","","","","","",""
"","null","html-keyboard-response","27","2.0.0","32173","pv2ysadqlm6","smaller","A17689315","Check perception times?","no","<div style=""font-size:60px;"">+</div>","null","","","","","","",""
"","410","image-keyboard-response","28","2.0.0","32584","pv2ysadqlm6","smaller","A17689315","Check perception times?","no","stimuli/5-Congruent.jpg","m","","","","","right","m","true"
"","null","html-keyboard-response","29","2.0.0","33489","pv2ysadqlm6","smaller","A17689315","Check perception times?","no","<p>Correct!</p>","null","","","","","","",""
"","null","html-keyboard-response","30","2.0.0","34505","pv2ysadqlm6","smaller","A17689315","Check perception times?","no","<div style=""font-size:60px;"">+</div>","null","","","","","","",""
"","551","image-keyboard-response","31","2.0.0","35057","pv2ysadqlm6","smaller","A17689315","Check perception times?","no","stimuli/8-Congruent.jpg","m","","","","","right","m","true"
"","null","html-keyboard-response","32","2.0.0","35972","pv2ysadqlm6","smaller","A17689315","Check perception times?","no","<p>Correct!</p>","null","","","","","","",""
"","null","html-keyboard-response","33","2.0.0","36975","pv2ysadqlm6","smaller","A17689315","Check perception times?","no","<div style=""font-size:60px;"">+</div>","null","","","","","","",""
"","587","image-keyboard-response","34","2.0.0","37563","pv2ysadqlm6","smaller","A17689315","Check perception times?","no","stimuli/4-Congruent.jpg","m","","","","","right","m","true"
"","null","html-keyboard-response","35","2.0.0","38475","pv2ysadqlm6","smaller","A17689315","Check perception times?","no","<p>Correct!</p>","null","","","","","","",""
"","null","html-keyboard-response","36","2.0.0","39492","pv2ysadqlm6","smaller","A17689315","Check perception times?","no","<div style=""font-size:60px;"">+</div>","null","","","","","","",""
"","390","image-keyboard-response","37","2.0.0","39883","pv2ysadqlm6","smaller","A17689315","Check perception times?","no","stimuli/3-Inongruent.jpg","z","","","","","left","z","true"
"","null","html-keyboard-response","38","2.0.0","40788","pv2ysadqlm6","smaller","A17689315","Check perception times?","no","<p>Correct!</p>","null","","","","","","",""
"","null","html-keyboard-response","39","2.0.0","41800","pv2ysadqlm6","smaller","A17689315","Check perception times?","no","<div style=""font-size:60px;"">+</div>","null","","","","","","",""
"","373","image-keyboard-response","40","2.0.0","42174","pv2ysadqlm6","smaller","A17689315","Check perception times?","no","stimuli/12-Congruent.jpg","m","","","","","right","m","true"
"","null","html-keyboard-response","41","2.0.0","43079","pv2ysadqlm6","smaller","A17689315","Check perception times?","no","<p>Correct!</p>","null","","","","","","",""
"","null","html-keyboard-response","42","2.0.0","44094","pv2ysadqlm6","smaller","A17689315","Check perception times?","no","<div style=""font-size:60px;"">+</div>","null","","","","","","",""
"","378","image-keyboard-response","43","2.0.0","44473","pv2ysadqlm6","smaller","A17689315","Check perception times?","no","stimuli/12-Inongruent.jpg","z","","","","","left","z","true"
"","null","html-keyboard-response","44","2.0.0","45387","pv2ysadqlm6","smaller","A17689315","Check perception times?","no","<p>Correct!</p>","null","","","","","","",""
"","null","html-keyboard-response","45","2.0.0","46399","pv2ysadqlm6","smaller","A17689315","Check perception times?","no","<div style=""font-size:60px;"">+</div>","null","","","","","","",""
"","371","image-keyboard-response","46","2.0.0","46771","pv2ysadqlm6","smaller","A17689315","Check perception times?","no","stimuli/6-Congruent.jpg","m","","","","","right","m","true"
"","null","html-keyboard-response","47","2.0.0","47678","pv2ysadqlm6","smaller","A17689315","Check perception times?","no","<p>Correct!</p>","null","","","","","","",""
"","null","html-keyboard-response","48","2.0.0","48688","pv2ysadqlm6","smaller","A17689315","Check perception times?","no","<div style=""font-size:60px;"">+</div>","null","","","","","","",""
"","472","image-keyboard-response","49","2.0.0","49162","pv2ysadqlm6","smaller","A17689315","Check perception times?","no","stimuli/27-Congruent.jpg","m","","","","","right","m","true"
"","null","html-keyboard-response","50","2.0.0","50063","pv2ysadqlm6","smaller","A17689315","Check perception times?","no","<p>Correct!</p>","null","","","","","","",""
"","null","html-keyboard-response","51","2.0.0","51078","pv2ysadqlm6","smaller","A17689315","Check perception times?","no","<div style=""font-size:60px;"">+</div>","null","","","","","","",""
"","344","image-keyboard-response","52","2.0.0","51423","pv2ysadqlm6","smaller","A17689315","Check perception times?","no","stimuli/4-Inongruent.jpg","z","","","","","left","z","true"
"","null","html-keyboard-response","53","2.0.0","52327","pv2ysadqlm6","smaller","A17689315","Check perception times?","no","<p>Correct!</p>","null","","","","","","",""
"","null","html-keyboard-response","54","2.0.0","53341","pv2ysadqlm6","smaller","A17689315","Check perception times?","no","<div style=""font-size:60px;"">+</div>","null","","","","","","",""
"","426","image-keyboard-response","55","2.0.0","53768","pv2ysadqlm6","smaller","A17689315","Check perception times?","no","stimuli/34-Congruent.jpg","m","","","","","right","m","true"
"","null","html-keyboard-response","56","2.0.0","54684","pv2ysadqlm6","smaller","A17689315","Check perception times?","no","<p>Correct!</p>","null","","","","","","",""
"","null","html-keyboard-response","57","2.0.0","55685","pv2ysadqlm6","smaller","A17689315","Check perception times?","no","<div style=""font-size:60px;"">+</div>","null","","","","","","",""
"","482","image-keyboard-response","58","2.0.0","56169","pv2ysadqlm6","smaller","A17689315","Check perception times?","no","stimuli/32-Congruent.jpg","m","","","","","right","m","true"
"","null","html-keyboard-response","59","2.0.0","57077","pv2ysadqlm6","smaller","A17689315","Check perception times?","no","<p>Correct!</p>","null","","","","","","",""
"","null","html-keyboard-response","60","2.0.0","58090","pv2ysadqlm6","smaller","A17689315","Check perception times?","no","<div style=""font-size:60px;"">+</div>","null","","","","","","",""
"","527","image-keyboard-response","61","2.0.0","58618","pv2ysadqlm6","smaller","A17689315","Check perception times?","no","stimuli/1-Inongruent.jpg","z","","","","","left","z","true"
"","null","html-keyboard-response","62","2.0.0","59528","pv2ysadqlm6","smaller","A17689315","Check perception times?","no","<p>Correct!</p>","null","","","","","","",""
"","null","html-keyboard-response","63","2.0.0","60531","pv2ysadqlm6","smaller","A17689315","Check perception times?","no","<div style=""font-size:60px;"">+</div>","null","","","","","","",""
"","470","image-keyboard-response","64","2.0.0","61002","pv2ysadqlm6","smaller","A17689315","Check perception times?","no","stimuli/4-Inongruent.jpg","z","","","","","left","z","true"
"","null","html-keyboard-response","65","2.0.0","61904","pv2ysadqlm6","smaller","A17689315","Check perception times?","no","<p>Correct!</p>","null","","","","","","",""
"","null","html-keyboard-response","66","2.0.0","62916","pv2ysadqlm6","smaller","A17689315","Check perception times?","no","<div style=""font-size:60px;"">+</div>","null","","","","","","",""
"","419","image-keyboard-response","67","2.0.0","63336","pv2ysadqlm6","smaller","A17689315","Check perception times?","no","stimuli/27-Inongruent.jpg","z","","","","","left","z","true"
"","null","html-keyboard-response","68","2.0.0","64242","pv2ysadqlm6","smaller","A17689315","Check perception times?","no","<p>Correct!</p>","null","","","","","","",""
"","null","html-keyboard-response","69","2.0.0","65256","pv2ysadqlm6","smaller","A17689315","Check perception times?","no","<div style=""font-size:60px;"">+</div>","null","","","","","","",""
"","298","image-keyboard-response","70","2.0.0","65555","pv2ysadqlm6","smaller","A17689315","Check perception times?","no","stimuli/20-Congruent.jpg","m","","","","","right","m","true"
"","null","html-keyboard-response","71","2.0.0","66459","pv2ysadqlm6","smaller","A17689315","Check perception times?","no","<p>Correct!</p>","null","","","","","","",""
"","null","html-keyboard-response","72","2.0.0","67474","pv2ysadqlm6","smaller","A17689315","Check perception times?","no","<div style=""font-size:60px;"">+</div>","null","","","","","","",""
"","346","image-keyboard-response","73","2.0.0","67821","pv2ysadqlm6","smaller","A17689315","Check perception times?","no","stimuli/32-Inongruent.jpg","z","","","","","left","z","true"
"","null","html-keyboard-response","74","2.0.0","68737","pv2ysadqlm6","smaller","A17689315","Check perception times?","no","<p>Correct!</p>","null","","","","","","",""
"","null","html-keyboard-response","75","2.0.0","69740","pv2ysadqlm6","smaller","A17689315","Check perception times?","no","<div style=""font-size:60px;"">+</div>","null","","","","","","",""
"","381","image-keyboard-response","76","2.0.0","70123","pv2ysadqlm6","smaller","A17689315","Check perception times?","no","stimuli/23-Inongruent.jpg","z","","","","","left","z","true"
"","null","html-keyboard-response","77","2.0.0","71025","pv2ysadqlm6","smaller","A17689315","Check perception times?","no","<p>Correct!</p>","null","","","","","","",""
"","null","html-keyboard-response","78","2.0.0","72038","pv2ysadqlm6","smaller","A17689315","Check perception times?","no","<div style=""font-size:60px;"">+</div>","null","","","","","","",""
"","401","image-keyboard-response","79","2.0.0","72440","pv2ysadqlm6","smaller","A17689315","Check perception times?","no","stimuli/25-Inongruent.jpg","z","","","","","left","z","true"
"","null","html-keyboard-response","80","2.0.0","73349","pv2ysadqlm6","smaller","A17689315","Check perception times?","no","<p>Correct!</p>","null","","","","","","",""
"","null","html-keyboard-response","81","2.0.0","74364","pv2ysadqlm6","smaller","A17689315","Check perception times?","no","<div style=""font-size:60px;"">+</div>","null","","","","","","",""
"","298","image-keyboard-response","82","2.0.0","74663","pv2ysadqlm6","smaller","A17689315","Check perception times?","no","stimuli/28-Congruent.jpg","m","","","","","right","m","true"
"","null","html-keyboard-response","83","2.0.0","75567","pv2ysadqlm6","smaller","A17689315","Check perception times?","no","<p>Correct!</p>","null","","","","","","",""
"","null","html-keyboard-response","84","2.0.0","76582","pv2ysadqlm6","smaller","A17689315","Check perception times?","no","<div style=""font-size:60px;"">+</div>","null","","","","","","",""
"","358","image-keyboard-response","85","2.0.0","76941","pv2ysadqlm6","smaller","A17689315","Check perception times?","no","stimuli/23-Congruent.jpg","m","","","","","right","m","true"
"","null","html-keyboard-response","86","2.0.0","77846","pv2ysadqlm6","smaller","A17689315","Check perception times?","no","<p>Correct!</p>","null","","","","","","",""
"","null","html-keyboard-response","87","2.0.0","78862","pv2ysadqlm6","smaller","A17689315","Check perception times?","no","<div style=""font-size:60px;"">+</div>","null","","","","","","",""
"","399","image-keyboard-response","88","2.0.0","79262","pv2ysadqlm6","smaller","A17689315","Check perception times?","no","stimuli/14-Congruent.jpg","m","","","","","right","m","true"
"","null","html-keyboard-response","89","2.0.0","80175","pv2ysadqlm6","smaller","A17689315","Check perception times?","no","<p>Correct!</p>","null","","","","","","",""
"","null","html-keyboard-response","90","2.0.0","81186","pv2ysadqlm6","smaller","A17689315","Check perception times?","no","<div style=""font-size:60px;"">+</div>","null","","","","","","",""
"","319","image-keyboard-response","91","2.0.0","81506","pv2ysadqlm6","smaller","A17689315","Check perception times?","no","stimuli/9-Inongruent.jpg","z","","","","","left","z","true"
"","null","html-keyboard-response","92","2.0.0","82417","pv2ysadqlm6","smaller","A17689315","Check perception times?","no","<p>Correct!</p>","null","","","","","","",""
"","null","html-keyboard-response","93","2.0.0","83431","pv2ysadqlm6","smaller","A17689315","Check perception times?","no","<div style=""font-size:60px;"">+</div>","null","","","","","","",""
"","290","image-keyboard-response","94","2.0.0","83722","pv2ysadqlm6","smaller","A17689315","Check perception times?","no","stimuli/12-Congruent.jpg","m","","","","","right","m","true"
"","null","html-keyboard-response","95","2.0.0","84631","pv2ysadqlm6","smaller","A17689315","Check perception times?","no","<p>Correct!</p>","null","","","","","","",""
"","null","html-keyboard-response","96","2.0.0","85647","pv2ysadqlm6","smaller","A17689315","Check perception times?","no","<div style=""font-size:60px;"">+</div>","null","","","","","","",""
"","319","image-keyboard-response","97","2.0.0","85967","pv2ysadqlm6","smaller","A17689315","Check perception times?","no","stimuli/16-Congruent.jpg","m","","","","","right","m","true"
"","null","html-keyboard-response","98","2.0.0","86878","pv2ysadqlm6","smaller","A17689315","Check perception times?","no","<p>Correct!</p>","null","","","","","","",""
"","null","html-keyboard-response","99","2.0.0","87891","pv2ysadqlm6","smaller","A17689315","Check perception times?","no","<div style=""font-size:60px;"">+</div>","null","","","","","","",""
"","344","image-keyboard-response","100","2.0.0","88237","pv2ysadqlm6","smaller","A17689315","Check perception times?","no","stimuli/4-Congruent.jpg","m","","","","","right","m","true"
"","null","html-keyboard-response","101","2.0.0","89141","pv2ysadqlm6","smaller","A17689315","Check perception times?","no","<p>Correct!</p>","null","","","","","","",""
"","null","html-keyboard-response","102","2.0.0","90152","pv2ysadqlm6","smaller","A17689315","Check perception times?","no","<div style=""font-size:60px;"">+</div>","null","","","","","","",""
"","417","image-keyboard-response","103","2.0.0","90570","pv2ysadqlm6","smaller","A17689315","Check perception times?","no","stimuli/33-Inongruent.jpg","z","","","","","left","z","true"
"","null","html-keyboard-response","104","2.0.0","91483","pv2ysadqlm6","smaller","A17689315","Check perception times?","no","<p>Correct!</p>","null","","","","","","",""
"","null","html-keyboard-response","105","2.0.0","92495","pv2ysadqlm6","smaller","A17689315","Check perception times?","no","<div style=""font-size:60px;"">+</div>","null","","","","","","",""
"","397","image-keyboard-response","106","2.0.0","92894","pv2ysadqlm6","smaller","A17689315","Check perception times?","no","stimuli/2-Congruent.jpg","m","","","","","right","m","true"
"","null","html-keyboard-response","107","2.0.0","93808","pv2ysadqlm6","smaller","A17689315","Check perception times?","no","<p>Correct!</p>","null","","","","","","",""
"","null","html-keyboard-response","108","2.0.0","94820","pv2ysadqlm6","smaller","A17689315","Check perception times?","no","<div style=""font-size:60px;"">+</div>","null","","","","","","",""
"","577","image-keyboard-response","109","2.0.0","95398","pv2ysadqlm6","smaller","A17689315","Check perception times?","no","stimuli/6-Inongruent.jpg","z","","","","","left","z","true"
"","null","html-keyboard-response","110","2.0.0","96304","pv2ysadqlm6","smaller","A17689315","Check perception times?","no","<p>Correct!</p>","null","","","","","","",""
"","null","html-keyboard-response","111","2.0.0","97319","pv2ysadqlm6","smaller","A17689315","Check perception times?","no","<div style=""font-size:60px;"">+</div>","null","","","","","","",""
"","321","image-keyboard-response","112","2.0.0","97641","pv2ysadqlm6","smaller","A17689315","Check perception times?","no","stimuli/9-Inongruent.jpg","z","","","","","left","z","true"
"","null","html-keyboard-response","113","2.0.0","98551","pv2ysadqlm6","smaller","A17689315","Check perception times?","no","<p>Correct!</p>","null","","","","","","",""
"","null","html-keyboard-response","114","2.0.0","99563","pv2ysadqlm6","smaller","A17689315","Check perception times?","no","<div style=""font-size:60px;"">+</div>","null","","","","","","",""
"","324","image-keyboard-response","115","2.0.0","99888","pv2ysadqlm6","smaller","A17689315","Check perception times?","no","stimuli/22-Congruent.jpg","m","","","","","right","m","true"
"","null","html-keyboard-response","116","2.0.0","100794","pv2ysadqlm6","smaller","A17689315","Check perception times?","no","<p>Correct!</p>","null","","","","","","",""
"","null","html-keyboard-response","117","2.0.0","101806","pv2ysadqlm6","smaller","A17689315","Check perception times?","no","<div style=""font-size:60px;"">+</div>","null","","","","","","",""
"","403","image-keyboard-response","118","2.0.0","102211","pv2ysadqlm6","smaller","A17689315","Check perception times?","no","stimuli/7-Inongruent.jpg","z","","","","","left","z","true"
"","null","html-keyboard-response","119","2.0.0","103119","pv2ysadqlm6","smaller","A17689315","Check perception times?","no","<p>Correct!</p>","null","","","","","","",""
"","null","html-keyboard-response","120","2.0.0","104130","pv2ysadqlm6","smaller","A17689315","Check perception times?","no","<div style=""font-size:60px;"">+</div>","null","","","","","","",""
"","353","image-keyboard-response","121","2.0.0","104484","pv2ysadqlm6","smaller","A17689315","Check perception times?","no","stimuli/15-Inongruent.jpg","z","","","","","left","z","true"
"","null","html-keyboard-response","122","2.0.0","105395","pv2ysadqlm6","smaller","A17689315","Check perception times?","no","<p>Correct!</p>","null","","","","","","",""
"","null","html-keyboard-response","123","2.0.0","106408","pv2ysadqlm6","smaller","A17689315","Check perception times?","no","<div style=""font-size:60px;"">+</div>","null","","","","","","",""
"","401","image-keyboard-response","124","2.0.0","106810","pv2ysadqlm6","smaller","A17689315","Check perception times?","no","stimuli/31-Congruent.jpg","m","","","","","right","m","true"
"","null","html-keyboard-response","125","2.0.0","107716","pv2ysadqlm6","smaller","A17689315","Check perception times?","no","<p>Correct!</p>","null","","","","","","",""
"","null","html-keyboard-response","126","2.0.0","108730","pv2ysadqlm6","smaller","A17689315","Check perception times?","no","<div style=""font-size:60px;"">+</div>","null","","","","","","",""
"","665","image-keyboard-response","127","2.0.0","109396","pv2ysadqlm6","smaller","A17689315","Check perception times?","no","stimuli/29-Inongruent.jpg","z","","","","","left","z","true"
"","null","html-keyboard-response","128","2.0.0","110304","pv2ysadqlm6","smaller","A17689315","Check perception times?","no","<p>Correct!</p>","null","","","","","","",""
"","null","html-keyboard-response","129","2.0.0","111318","pv2ysadqlm6","smaller","A17689315","Check perception times?","no","<div style=""font-size:60px;"">+</div>","null","","","","","","",""
"","340","image-keyboard-response","130","2.0.0","111659","pv2ysadqlm6","smaller","A17689315","Check perception times?","no","stimuli/7-Inongruent.jpg","z","","","","","left","z","true"
"","null","html-keyboard-response","131","2.0.0","112565","pv2ysadqlm6","smaller","A17689315","Check perception times?","no","<p>Correct!</p>","null","","","","","","",""
"","null","html-keyboard-response","132","2.0.0","113577","pv2ysadqlm6","smaller","A17689315","Check perception times?","no","<div style=""font-size:60px;"">+</div>","null","","","","","","",""
"","310","image-keyboard-response","133","2.0.0","113888","pv2ysadqlm6","smaller","A17689315","Check perception times?","no","stimuli/30-Congruent.jpg","m","","","","","right","m","true"
"","null","html-keyboard-response","134","2.0.0","114800","pv2ysadqlm6","smaller","A17689315","Check perception times?","no","<p>Correct!</p>","null","","","","","","",""
"","null","html-keyboard-response","135","2.0.0","115812","pv2ysadqlm6","smaller","A17689315","Check perception times?","no","<div style=""font-size:60px;"">+</div>","null","","","","","","",""
"","313","image-keyboard-response","136","2.0.0","116126","pv2ysadqlm6","smaller","A17689315","Check perception times?","no","stimuli/2-Inongruent.jpg","z","","","","","left","z","true"
"","null","html-keyboard-response","137","2.0.0","117031","pv2ysadqlm6","smaller","A17689315","Check perception times?","no","<p>Correct!</p>","null","","","","","","",""
"","null","html-keyboard-response","138","2.0.0","118037","pv2ysadqlm6","smaller","A17689315","Check perception times?","no","<div style=""font-size:60px;"">+</div>","null","","","","","","",""
"","313","image-keyboard-response","139","2.0.0","118350","pv2ysadqlm6","smaller","A17689315","Check perception times?","no","stimuli/22-Congruent.jpg","m","","","","","right","m","true"
"","null","html-keyboard-response","140","2.0.0","119255","pv2ysadqlm6","smaller","A17689315","Check perception times?","no","<p>Correct!</p>","null","","","","","","",""
"","null","html-keyboard-response","141","2.0.0","120260","pv2ysadqlm6","smaller","A17689315","Check perception times?","no","<div style=""font-size:60px;"">+</div>","null","","","","","","",""
"","335","image-keyboard-response","142","2.0.0","120596","pv2ysadqlm6","smaller","A17689315","Check perception times?","no","stimuli/17-Inongruent.jpg","z","","","","","left","z","true"
"","null","html-keyboard-response","143","2.0.0","121508","pv2ysadqlm6","smaller","A17689315","Check perception times?","no","<p>Correct!</p>","null","","","","","","",""
"","null","html-keyboard-response","144","2.0.0","122521","pv2ysadqlm6","smaller","A17689315","Check perception times?","no","<div style=""font-size:60px;"">+</div>","null","","","","","","",""
"","346","image-keyboard-response","145","2.0.0","122869","pv2ysadqlm6","smaller","A17689315","Check perception times?","no","stimuli/25-Congruent.jpg","m","","","","","right","m","true"
"","null","html-keyboard-response","146","2.0.0","123770","pv2ysadqlm6","smaller","A17689315","Check perception times?","no","<p>Correct!</p>","null","","","","","","",""
"","null","html-keyboard-response","147","2.0.0","124785","pv2ysadqlm6","smaller","A17689315","Check perception times?","no","<div style=""font-size:60px;"">+</div>","null","","","","","","",""
"","477","image-keyboard-response","148","2.0.0","125263","pv2ysadqlm6","smaller","A17689315","Check perception times?","no","stimuli/3-Congruent.jpg","m","","","","","right","m","true"
"","null","html-keyboard-response","149","2.0.0","126176","pv2ysadqlm6","smaller","A17689315","Check perception times?","no","<p>Correct!</p>","null","","","","","","",""
"","null","html-keyboard-response","150","2.0.0","127192","pv2ysadqlm6","smaller","A17689315","Check perception times?","no","<div style=""font-size:60px;"">+</div>","null","","","","","","",""
"","313","image-keyboard-response","151","2.0.0","127506","pv2ysadqlm6","smaller","A17689315","Check perception times?","no","stimuli/35-Inongruent.jpg","z","","","","","left","z","true"
"","null","html-keyboard-response","152","2.0.0","128410","pv2ysadqlm6","smaller","A17689315","Check perception times?","no","<p>Correct!</p>","null","","","","","","",""
"","null","html-keyboard-response","153","2.0.0","129423","pv2ysadqlm6","smaller","A17689315","Check perception times?","no","<div style=""font-size:60px;"">+</div>","null","","","","","","",""
"","400","image-keyboard-response","154","2.0.0","129825","pv2ysadqlm6","smaller","A17689315","Check perception times?","no","stimuli/10-Inongruent.jpg","z","","","","","left","z","true"
"","null","html-keyboard-response","155","2.0.0","130733","pv2ysadqlm6","smaller","A17689315","Check perception times?","no","<p>Correct!</p>","null","","","","","","",""
"","null","html-keyboard-response","156","2.0.0","131745","pv2ysadqlm6","smaller","A17689315","Check perception times?","no","<div style=""font-size:60px;"">+</div>","null","","","","","","",""
"","531","image-keyboard-response","157","2.0.0","132277","pv2ysadqlm6","smaller","A17689315","Check perception times?","no","stimuli/35-Congruent.jpg","m","","","","","right","m","true"
"","null","html-keyboard-response","158","2.0.0","133180","pv2ysadqlm6","smaller","A17689315","Check perception times?","no","<p>Correct!</p>","null","","","","","","",""
"","null","html-keyboard-response","159","2.0.0","134196","pv2ysadqlm6","smaller","A17689315","Check perception times?","no","<div style=""font-size:60px;"">+</div>","null","","","","","","",""
"","353","image-keyboard-response","160","2.0.0","134549","pv2ysadqlm6","smaller","A17689315","Check perception times?","no","stimuli/35-Inongruent.jpg","z","","","","","left","z","true"
"","null","html-keyboard-response","161","2.0.0","135459","pv2ysadqlm6","smaller","A17689315","Check perception times?","no","<p>Correct!</p>","null","","","","","","",""
"","null","html-keyboard-response","162","2.0.0","136471","pv2ysadqlm6","smaller","A17689315","Check perception times?","no","<div style=""font-size:60px;"">+</div>","null","","","","","","",""
"","322","image-keyboard-response","163","2.0.0","136795","pv2ysadqlm6","smaller","A17689315","Check perception times?","no","stimuli/34-Inongruent.jpg","z","","","","","left","z","true"
"","null","html-keyboard-response","164","2.0.0","137704","pv2ysadqlm6","smaller","A17689315","Check perception times?","no","<p>Correct!</p>","null","","","","","","",""
"","null","html-keyboard-response","165","2.0.0","138719","pv2ysadqlm6","smaller","A17689315","Check perception times?","no","<div style=""font-size:60px;"">+</div>","null","","","","","","",""
"","276","image-keyboard-response","166","2.0.0","138996","pv2ysadqlm6","smaller","A17689315","Check perception times?","no","stimuli/31-Inongruent.jpg","z","","","","","left","z","true"
"","null","html-keyboard-response","167","2.0.0","139907","pv2ysadqlm6","smaller","A17689315","Check perception times?","no","<p>Correct!</p>","null","","","","","","",""
"","null","html-keyboard-response","168","2.0.0","140918","pv2ysadqlm6","smaller","A17689315","Check perception times?","no","<div style=""font-size:60px;"">+</div>","null","","","","","","",""
"","371","image-keyboard-response","169","2.0.0","141290","pv2ysadqlm6","smaller","A17689315","Check perception times?","no","stimuli/13-Congruent.jpg","m","","","","","right","m","true"
"","null","html-keyboard-response","170","2.0.0","142196","pv2ysadqlm6","smaller","A17689315","Check perception times?","no","<p>Correct!</p>","null","","","","","","",""
"","null","html-keyboard-response","171","2.0.0","143209","pv2ysadqlm6","smaller","A17689315","Check perception times?","no","<div style=""font-size:60px;"">+</div>","null","","","","","","",""
"","2085","image-keyboard-response","172","2.0.0","145295","pv2ysadqlm6","smaller","A17689315","Check perception times?","no","stimuli/33-Inongruent.jpg","z","","","","","left","z","true"
"","null","html-keyboard-response","173","2.0.0","146209","pv2ysadqlm6","smaller","A17689315","Check perception times?","no","<p>Correct!</p>","null","","","","","","",""
"","null","html-keyboard-response","174","2.0.0","147210","pv2ysadqlm6","smaller","A17689315","Check perception times?","no","<div style=""font-size:60px;"">+</div>","null","","","","","","",""
"","544","image-keyboard-response","175","2.0.0","147755","pv2ysadqlm6","smaller","A17689315","Check perception times?","no","stimuli/24-Inongruent.jpg","z","","","","","left","z","true"
"","null","html-keyboard-response","176","2.0.0","148661","pv2ysadqlm6","smaller","A17689315","Check perception times?","no","<p>Correct!</p>","null","","","","","","",""
"","null","html-keyboard-response","177","2.0.0","149673","pv2ysadqlm6","smaller","A17689315","Check perception times?","no","<div style=""font-size:60px;"">+</div>","null","","","","","","",""
"","525","image-keyboard-response","178","2.0.0","150199","pv2ysadqlm6","smaller","A17689315","Check perception times?","no","stimuli/19-Congruent.jpg","m","","","","","right","m","true"
"","null","html-keyboard-response","179","2.0.0","151109","pv2ysadqlm6","smaller","A17689315","Check perception times?","no","<p>Correct!</p>","null","","","","","","",""
"","null","html-keyboard-response","180","2.0.0","152123","pv2ysadqlm6","smaller","A17689315","Check perception times?","no","<div style=""font-size:60px;"">+</div>","null","","","","","","",""
"","496","image-keyboard-response","181","2.0.0","152620","pv2ysadqlm6","smaller","A17689315","Check perception times?","no","stimuli/35-Congruent.jpg","m","","","","","right","m","true"
"","126","html-keyboard-response","182","2.0.0","152746","pv2ysadqlm6","smaller","A17689315","Check perception times?","no","<p>Correct!</p>","l","","","","","","",""
"","null","html-keyboard-response","183","2.0.0","153761","pv2ysadqlm6","smaller","A17689315","Check perception times?","no","<div style=""font-size:60px;"">+</div>","null","","","","","","",""
"","414","image-keyboard-response","184","2.0.0","154176","pv2ysadqlm6","smaller","A17689315","Check perception times?","no","stimuli/5-Inongruent.jpg","z","","","","","left","z","true"
"","null","html-keyboard-response","185","2.0.0","155088","pv2ysadqlm6","smaller","A17689315","Check perception times?","no","<p>Correct!</p>","null","","","","","","",""
"","null","html-keyboard-response","186","2.0.0","156104","pv2ysadqlm6","smaller","A17689315","Check perception times?","no","<div style=""font-size:60px;"">+</div>","null","","","","","","",""
"","532","image-keyboard-response","187","2.0.0","156636","pv2ysadqlm6","smaller","A17689315","Check perception times?","no","stimuli/3-Inongruent.jpg","z","","","","","left","z","true"
"","null","html-keyboard-response","188","2.0.0","157541","pv2ysadqlm6","smaller","A17689315","Check perception times?","no","<p>Correct!</p>","null","","","","","","",""
"","null","html-keyboard-response","189","2.0.0","158557","pv2ysadqlm6","smaller","A17689315","Check perception times?","no","<div style=""font-size:60px;"">+</div>","null","","","","","","",""
"","422","image-keyboard-response","190","2.0.0","158980","pv2ysadqlm6","smaller","A17689315","Check perception times?","no","stimuli/18-Inongruent.jpg","z","","","","","left","z","true"
"","null","html-keyboard-response","191","2.0.0","159896","pv2ysadqlm6","smaller","A17689315","Check perception times?","no","<p>Correct!</p>","null","","","","","","",""
"","null","html-keyboard-response","192","2.0.0","160912","pv2ysadqlm6","smaller","A17689315","Check perception times?","no","<div style=""font-size:60px;"">+</div>","null","","","","","","",""
"","507","image-keyboard-response","193","2.0.0","161420","pv2ysadqlm6","smaller","A17689315","Check perception times?","no","stimuli/7-Congruent.jpg","m","","","","","right","m","true"
"","null","html-keyboard-response","194","2.0.0","162332","pv2ysadqlm6","smaller","A17689315","Check perception times?","no","<p>Correct!</p>","null","","","","","","",""
"","null","html-keyboard-response","195","2.0.0","163335","pv2ysadqlm6","smaller","A17689315","Check perception times?","no","<div style=""font-size:60px;"">+</div>","null","","","","","","",""
"","477","image-keyboard-response","196","2.0.0","163812","pv2ysadqlm6","smaller","A17689315","Check perception times?","no","stimuli/9-Congruent.jpg","m","","","","","right","m","true"
"","null","html-keyboard-response","197","2.0.0","164721","pv2ysadqlm6","smaller","A17689315","Check perception times?","no","<p>Correct!</p>","null","","","","","","",""
"","null","html-keyboard-response","198","2.0.0","165735","pv2ysadqlm6","smaller","A17689315","Check perception times?","no","<div style=""font-size:60px;"">+</div>","null","","","","","","",""
"","421","image-keyboard-response","199","2.0.0","166157","pv2ysadqlm6","smaller","A17689315","Check perception times?","no","stimuli/24-Inongruent.jpg","z","","","","","left","z","true"
"","null","html-keyboard-response","200","2.0.0","167060","pv2ysadqlm6","smaller","A17689315","Check perception times?","no","<p>Correct!</p>","null","","","","","","",""
"","null","html-keyboard-response","201","2.0.0","168076","pv2ysadqlm6","smaller","A17689315","Check perception times?","no","<div style=""font-size:60px;"">+</div>","null","","","","","","",""
"","469","image-keyboard-response","202","2.0.0","168546","pv2ysadqlm6","smaller","A17689315","Check perception times?","no","stimuli/33-Congruent.jpg","m","","","","","right","m","true"
"","null","html-keyboard-response","203","2.0.0","169453","pv2ysadqlm6","smaller","A17689315","Check perception times?","no","<p>Correct!</p>","null","","","","","","",""
"","null","html-keyboard-response","204","2.0.0","170468","pv2ysadqlm6","smaller","A17689315","Check perception times?","no","<div style=""font-size:60px;"">+</div>","null","","","","","","",""
"","578","image-keyboard-response","205","2.0.0","171047","pv2ysadqlm6","smaller","A17689315","Check perception times?","no","stimuli/28-Inongruent.jpg","z","","","","","left","z","true"
"","null","html-keyboard-response","206","2.0.0","171951","pv2ysadqlm6","smaller","A17689315","Check perception times?","no","<p>Correct!</p>","null","","","","","","",""
"","null","html-keyboard-response","207","2.0.0","172967","pv2ysadqlm6","smaller","A17689315","Check perception times?","no","<div style=""font-size:60px;"">+</div>","null","","","","","","",""
"","470","image-keyboard-response","208","2.0.0","173438","pv2ysadqlm6","smaller","A17689315","Check perception times?","no","stimuli/19-Inongruent.jpg","z","","","","","left","z","true"
"","null","html-keyboard-response","209","2.0.0","174353","pv2ysadqlm6","smaller","A17689315","Check perception times?","no","<p>Correct!</p>","null","","","","","","",""
"","null","html-keyboard-response","210","2.0.0","175355","pv2ysadqlm6","smaller","A17689315","Check perception times?","no","<div style=""font-size:60px;"">+</div>","null","","","","","","",""
"","424","image-keyboard-response","211","2.0.0","175780","pv2ysadqlm6","smaller","A17689315","Check perception times?","no","stimuli/18-Congruent.jpg","m","","","","","right","m","true"
"","null","html-keyboard-response","212","2.0.0","176682","pv2ysadqlm6","smaller","A17689315","Check perception times?","no","<p>Correct!</p>","null","","","","","","",""
"","null","html-keyboard-response","213","2.0.0","177694","pv2ysadqlm6","smaller","A17689315","Check perception times?","no","<div style=""font-size:60px;"">+</div>","null","","","","","","",""
"","375","image-keyboard-response","214","2.0.0","178070","pv2ysadqlm6","smaller","A17689315","Check perception times?","no","stimuli/3-Congruent.jpg","m","","","","","right","m","true"
"","null","html-keyboard-response","215","2.0.0","178977","pv2ysadqlm6","smaller","A17689315","Check perception times?","no","<p>Correct!</p>","null","","","","","","",""
"","null","html-keyboard-response","216","2.0.0","179991","pv2ysadqlm6","smaller","A17689315","Check perception times?","no","<div style=""font-size:60px;"">+</div>","null","","","","","","",""
"","607","image-keyboard-response","217","2.0.0","180599","pv2ysadqlm6","smaller","A17689315","Check perception times?","no","stimuli/14-Congruent.jpg","m","","","","","right","m","true"
"","null","html-keyboard-response","218","2.0.0","181506","pv2ysadqlm6","smaller","A17689315","Check perception times?","no","<p>Correct!</p>","null","","","","","","",""
"","null","html-keyboard-response","219","2.0.0","182519","pv2ysadqlm6","smaller","A17689315","Check perception times?","no","<div style=""font-size:60px;"">+</div>","null","","","","","","",""
"","407","image-keyboard-response","220","2.0.0","182928","pv2ysadqlm6","smaller","A17689315","Check perception times?","no","stimuli/32-Inongruent.jpg","z","","","","","left","z","true"
"","null","html-keyboard-response","221","2.0.0","183831","pv2ysadqlm6","smaller","A17689315","Check perception times?","no","<p>Correct!</p>","null","","","","","","",""
"","null","html-keyboard-response","222","2.0.0","184846","pv2ysadqlm6","smaller","A17689315","Check perception times?","no","<div style=""font-size:60px;"">+</div>","null","","","","","","",""
"","461","image-keyboard-response","223","2.0.0","185308","pv2ysadqlm6","smaller","A17689315","Check perception times?","no","stimuli/36-Congruent.jpg","m","","","","","right","m","true"
"","218","html-keyboard-response","224","2.0.0","185527","pv2ysadqlm6","smaller","A17689315","Check perception times?","no","<p>Correct!</p>","m","","","","","","",""
"","null","html-keyboard-response","225","2.0.0","186529","pv2ysadqlm6","smaller","A17689315","Check perception times?","no","<div style=""font-size:60px;"">+</div>","null","","","","","","",""
"","601","image-keyboard-response","226","2.0.0","187131","pv2ysadqlm6","smaller","A17689315","Check perception times?","no","stimuli/13-Inongruent.jpg","z","","","","","left","z","true"
"","null","html-keyboard-response","227","2.0.0","188042","pv2ysadqlm6","smaller","A17689315","Check perception times?","no","<p>Correct!</p>","null","","","","","","",""
"","null","html-keyboard-response","228","2.0.0","189055","pv2ysadqlm6","smaller","A17689315","Check perception times?","no","<div style=""font-size:60px;"">+</div>","null","","","","","","",""
"","477","image-keyboard-response","229","2.0.0","189532","pv2ysadqlm6","smaller","A17689315","Check perception times?","no","stimuli/22-Inongruent.jpg","z","","","","","left","z","true"
"","null","html-keyboard-response","230","2.0.0","190442","pv2ysadqlm6","smaller","A17689315","Check perception times?","no","<p>Correct!</p>","null","","","","","","",""
"","null","html-keyboard-response","231","2.0.0","191454","pv2ysadqlm6","smaller","A17689315","Check perception times?","no","<div style=""font-size:60px;"">+</div>","null","","","","","","",""
"","369","image-keyboard-response","232","2.0.0","191825","pv2ysadqlm6","smaller","A17689315","Check perception times?","no","stimuli/18-Congruent.jpg","m","","","","","right","m","true"
"","229","html-keyboard-response","233","2.0.0","192054","pv2ysadqlm6","smaller","A17689315","Check perception times?","no","<p>Correct!</p>","m","","","","","","",""
"","null","html-keyboard-response","234","2.0.0","193061","pv2ysadqlm6","smaller","A17689315","Check perception times?","no","<div style=""font-size:60px;"">+</div>","null","","","","","","",""
"","404","image-keyboard-response","235","2.0.0","193465","pv2ysadqlm6","smaller","A17689315","Check perception times?","no","stimuli/34-Congruent.jpg","m","","","","","right","m","true"
"","198","html-keyboard-response","236","2.0.0","193664","pv2ysadqlm6","smaller","A17689315","Check perception times?","no","<p>Correct!</p>","m","","","","","","",""
"","null","html-keyboard-response","237","2.0.0","194666","pv2ysadqlm6","smaller","A17689315","Check perception times?","no","<div style=""font-size:60px;"">+</div>","null","","","","","","",""
"","456","image-keyboard-response","238","2.0.0","195123","pv2ysadqlm6","smaller","A17689315","Check perception times?","no","stimuli/30-Congruent.jpg","m","","","","","right","m","true"
"","226","html-keyboard-response","239","2.0.0","195349","pv2ysadqlm6","smaller","A17689315","Check perception times?","no","<p>Correct!</p>","m","","","","","","",""
"","null","html-keyboard-response","240","2.0.0","196364","pv2ysadqlm6","smaller","A17689315","Check perception times?","no","<div style=""font-size:60px;"">+</div>","null","","","","","","",""
"","435","image-keyboard-response","241","2.0.0","196800","pv2ysadqlm6","smaller","A17689315","Check perception times?","no","stimuli/30-Inongruent.jpg","z","","","","","left","z","true"
"","null","html-keyboard-response","242","2.0.0","197708","pv2ysadqlm6","smaller","A17689315","Check perception times?","no","<p>Correct!</p>","null","","","","","","",""
"","null","html-keyboard-response","243","2.0.0","198722","pv2ysadqlm6","smaller","A17689315","Check perception times?","no","<div style=""font-size:60px;"">+</div>","null","","","","","","",""
"","457","image-keyboard-response","244","2.0.0","199180","pv2ysadqlm6","smaller","A17689315","Check perception times?","no","stimuli/19-Inongruent.jpg","z","","","","","left","z","true"
"","255","html-keyboard-response","245","2.0.0","199436","pv2ysadqlm6","smaller","A17689315","Check perception times?","no","<p>Correct!</p>","z","","","","","","",""
"","null","html-keyboard-response","246","2.0.0","200439","pv2ysadqlm6","smaller","A17689315","Check perception times?","no","<div style=""font-size:60px;"">+</div>","null","","","","","","",""
"","60","image-keyboard-response","247","2.0.0","200500","pv2ysadqlm6","smaller","A17689315","Check perception times?","no","stimuli/26-Inongruent.jpg","z","","","","","left","z","true"
"","null","html-keyboard-response","248","2.0.0","201402","pv2ysadqlm6","smaller","A17689315","Check perception times?","no","<p>Correct!</p>","null","","","","","","",""
"","null","html-keyboard-response","249","2.0.0","202414","pv2ysadqlm6","smaller","A17689315","Check perception times?","no","<div style=""font-size:60px;"">+</div>","null","","","","","","",""
"","458","image-keyboard-response","250","2.0.0","202873","pv2ysadqlm6","smaller","A17689315","Check perception times?","no","stimuli/11-Congruent.jpg","m","","","","","right","m","true"
"","190","html-keyboard-response","251","2.0.0","203063","pv2ysadqlm6","smaller","A17689315","Check perception times?","no","<p>Correct!</p>","m","","","","","","",""
"","null","html-keyboard-response","252","2.0.0","204071","pv2ysadqlm6","smaller","A17689315","Check perception times?","no","<div style=""font-size:60px;"">+</div>","null","","","","","","",""
"","229","image-keyboard-response","253","2.0.0","204301","pv2ysadqlm6","smaller","A17689315","Check perception times?","no","stimuli/24-Congruent.jpg","m","","","","","right","m","true"
"","175","html-keyboard-response","254","2.0.0","204476","pv2ysadqlm6","smaller","A17689315","Check perception times?","no","<p>Correct!</p>","m","","","","","","",""
"","null","html-keyboard-response","255","2.0.0","205489","pv2ysadqlm6","smaller","A17689315","Check perception times?","no","<div style=""font-size:60px;"">+</div>","null","","","","","","",""
"","475","image-keyboard-response","256","2.0.0","205964","pv2ysadqlm6","smaller","A17689315","Check perception times?","no","stimuli/1-Congruent.jpg","m","","","","","right","m","true"
"","199","html-keyboard-response","257","2.0.0","206164","pv2ysadqlm6","smaller","A17689315","Check perception times?","no","<p>Correct!</p>","m","","","","","","",""
"","null","html-keyboard-response","258","2.0.0","207165","pv2ysadqlm6","smaller","A17689315","Check perception times?","no","<div style=""font-size:60px;"">+</div>","null","","","","","","",""
"","200","image-keyboard-response","259","2.0.0","207366","pv2ysadqlm6","smaller","A17689315","Check perception times?","no","stimuli/6-Inongruent.jpg","m","","","","","left","z","false"
"","161","html-keyboard-response","260","2.0.0","207528","pv2ysadqlm6","smaller","A17689315","Check perception times?","no","<p>Incorrect.</p><p>Remember to select the <b>smaller</b> image.</p><p>Continuing in 5 seconds...</p>","z","","","","","","",""
"","null","html-keyboard-response","261","2.0.0","208538","pv2ysadqlm6","smaller","A17689315","Check perception times?","no","<div style=""font-size:60px;"">+</div>","null","","","","","","",""
"","4578","image-keyboard-response","262","2.0.0","213117","pv2ysadqlm6","smaller","A17689315","Check perception times?","no","stimuli/1-Congruent.jpg","z","","","","","right","m","false"
"","null","html-keyboard-response","263","2.0.0","218129","pv2ysadqlm6","smaller","A17689315","Check perception times?","no","<p>Incorrect.</p><p>Remember to select the <b>smaller</b> image.</p><p>Continuing in 5 seconds...</p>","null","","","","","","",""
"","null","html-keyboard-response","264","2.0.0","219143","pv2ysadqlm6","smaller","A17689315","Check perception times?","no","<div style=""font-size:60px;"">+</div>","null","","","","","","",""
"","750","image-keyboard-response","265","2.0.0","219894","pv2ysadqlm6","smaller","A17689315","Check perception times?","no","stimuli/1-Inongruent.jpg","z","","","","","left","z","true"
"","null","html-keyboard-response","266","2.0.0","220795","pv2ysadqlm6","smaller","A17689315","Check perception times?","no","<p>Correct!</p>","null","","","","","","",""
"","null","html-keyboard-response","267","2.0.0","221809","pv2ysadqlm6","smaller","A17689315","Check perception times?","no","<div style=""font-size:60px;"">+</div>","null","","","","","","",""
"","516","image-keyboard-response","268","2.0.0","222326","pv2ysadqlm6","smaller","A17689315","Check perception times?","no","stimuli/36-Inongruent.jpg","z","","","","","left","z","true"
"","null","html-keyboard-response","269","2.0.0","223234","pv2ysadqlm6","smaller","A17689315","Check perception times?","no","<p>Correct!</p>","null","","","","","","",""
"","null","html-keyboard-response","270","2.0.0","224245","pv2ysadqlm6","smaller","A17689315","Check perception times?","no","<div style=""font-size:60px;"">+</div>","null","","","","","","",""
"","611","image-keyboard-response","271","2.0.0","224857","pv2ysadqlm6","smaller","A17689315","Check perception times?","no","stimuli/20-Inongruent.jpg","z","","","","","left","z","true"
"","null","html-keyboard-response","272","2.0.0","225762","pv2ysadqlm6","smaller","A17689315","Check perception times?","no","<p>Correct!</p>","null","","","","","","",""
"","null","html-keyboard-response","273","2.0.0","226767","pv2ysadqlm6","smaller","A17689315","Check perception times?","no","<div style=""font-size:60px;"">+</div>","null","","","","","","",""
"","449","image-keyboard-response","274","2.0.0","227217","pv2ysadqlm6","smaller","A17689315","Check perception times?","no","stimuli/28-Congruent.jpg","m","","","","","right","m","true"
"","null","html-keyboard-response","275","2.0.0","228128","pv2ysadqlm6","smaller","A17689315","Check perception times?","no","<p>Correct!</p>","null","","","","","","",""
"","null","html-keyboard-response","276","2.0.0","229143","pv2ysadqlm6","smaller","A17689315","Check perception times?","no","<div style=""font-size:60px;"">+</div>","null","","","","","","",""
"","463","image-keyboard-response","277","2.0.0","229607","pv2ysadqlm6","smaller","A17689315","Check perception times?","no","stimuli/21-Congruent.jpg","m","","","","","right","m","true"
"","203","html-keyboard-response","278","2.0.0","229811","pv2ysadqlm6","smaller","A17689315","Check perception times?","no","<p>Correct!</p>","m","","","","","","",""
"","null","html-keyboard-response","279","2.0.0","230821","pv2ysadqlm6","smaller","A17689315","Check perception times?","no","<div style=""font-size:60px;"">+</div>","null","","","","","","",""
"","795","image-keyboard-response","280","2.0.0","231616","pv2ysadqlm6","smaller","A17689315","Check perception times?","no","stimuli/17-Congruent.jpg","m","","","","","right","m","true"
"","209","html-keyboard-response","281","2.0.0","231826","pv2ysadqlm6","smaller","A17689315","Check perception times?","no","<p>Correct!</p>","m","","","","","","",""
"","null","html-keyboard-response","282","2.0.0","232828","pv2ysadqlm6","smaller","A17689315","Check perception times?","no","<div style=""font-size:60px;"">+</div>","null","","","","","","",""
"","376","image-keyboard-response","283","2.0.0","233205","pv2ysadqlm6","smaller","A17689315","Check perception times?","no","stimuli/14-Inongruent.jpg","z","","","","","left","z","true"
"","null","html-keyboard-response","284","2.0.0","234108","pv2ysadqlm6","smaller","A17689315","Check perception times?","no","<p>Correct!</p>","null","","","","","","",""
"","null","html-keyboard-response","285","2.0.0","235124","pv2ysadqlm6","smaller","A17689315","Check perception times?","no","<div style=""font-size:60px;"">+</div>","null","","","","","","",""
"","538","image-keyboard-response","286","2.0.0","235662","pv2ysadqlm6","smaller","A17689315","Check perception times?","no","stimuli/14-Inongruent.jpg","z","","","","","left","z","true"
"","null","html-keyboard-response","287","2.0.0","236574","pv2ysadqlm6","smaller","A17689315","Check perception times?","no","<p>Correct!</p>","null","","","","","","",""
"","null","html-keyboard-response","288","2.0.0","237583","pv2ysadqlm6","smaller","A17689315","Check perception times?","no","<div style=""font-size:60px;"">+</div>","null","","","","","","",""
"","597","image-keyboard-response","289","2.0.0","238181","pv2ysadqlm6","smaller","A17689315","Check perception times?","no","stimuli/32-Congruent.jpg","m","","","","","right","m","true"
"","null","html-keyboard-response","290","2.0.0","239096","pv2ysadqlm6","smaller","A17689315","Check perception times?","no","<p>Correct!</p>","null","","","","","","",""
"","null","html-keyboard-response","291","2.0.0","240111","pv2ysadqlm6","smaller","A17689315","Check perception times?","no","<div style=""font-size:60px;"">+</div>","null","","","","","","",""
"","1203","image-keyboard-response","292","2.0.0","241314","pv2ysadqlm6","smaller","A17689315","Check perception times?","no","stimuli/34-Inongruent.jpg","z","","","","","left","z","true"
"","null","html-keyboard-response","293","2.0.0","242217","pv2ysadqlm6","smaller","A17689315","Check perception times?","no","<p>Correct!</p>","null","","","","","","",""
"","null","html-keyboard-response","294","2.0.0","243230","pv2ysadqlm6","smaller","A17689315","Check perception times?","no","<div style=""font-size:60px;"">+</div>","null","","","","","","",""
"","735","image-keyboard-response","295","2.0.0","243967","pv2ysadqlm6","smaller","A17689315","Check perception times?","no","stimuli/31-Congruent.jpg","m","","","","","right","m","true"
"","null","html-keyboard-response","296","2.0.0","244871","pv2ysadqlm6","smaller","A17689315","Check perception times?","no","<p>Correct!</p>","null","","","","","","",""
"","null","html-keyboard-response","297","2.0.0","245884","pv2ysadqlm6","smaller","A17689315","Check perception times?","no","<div style=""font-size:60px;"">+</div>","null","","","","","","",""
"","559","image-keyboard-response","298","2.0.0","246444","pv2ysadqlm6","smaller","A17689315","Check perception times?","no","stimuli/12-Inongruent.jpg","z","","","","","left","z","true"
"","null","html-keyboard-response","299","2.0.0","247350","pv2ysadqlm6","smaller","A17689315","Check perception times?","no","<p>Correct!</p>","null","","","","","","",""
"","null","html-keyboard-response","300","2.0.0","248358","pv2ysadqlm6","smaller","A17689315","Check perception times?","no","<div style=""font-size:60px;"">+</div>","null","","","","","","",""
"","503","image-keyboard-response","301","2.0.0","248862","pv2ysadqlm6","smaller","A17689315","Check perception times?","no","stimuli/33-Congruent.jpg","m","","","","","right","m","true"
"","null","html-keyboard-response","302","2.0.0","249765","pv2ysadqlm6","smaller","A17689315","Check perception times?","no","<p>Correct!</p>","null","","","","","","",""
"","null","html-keyboard-response","303","2.0.0","250779","pv2ysadqlm6","smaller","A17689315","Check perception times?","no","<div style=""font-size:60px;"">+</div>","null","","","","","","",""
"","535","image-keyboard-response","304","2.0.0","251315","pv2ysadqlm6","smaller","A17689315","Check perception times?","no","stimuli/29-Inongruent.jpg","z","","","","","left","z","true"
"","null","html-keyboard-response","305","2.0.0","252228","pv2ysadqlm6","smaller","A17689315","Check perception times?","no","<p>Correct!</p>","null","","","","","","",""
"","null","html-keyboard-response","306","2.0.0","253237","pv2ysadqlm6","smaller","A17689315","Check perception times?","no","<div style=""font-size:60px;"">+</div>","null","","","","","","",""
"","673","image-keyboard-response","307","2.0.0","253911","pv2ysadqlm6","smaller","A17689315","Check perception times?","no","stimuli/27-Inongruent.jpg","z","","","","","left","z","true"
"","715","html-keyboard-response","308","2.0.0","254627","pv2ysadqlm6","smaller","A17689315","Check perception times?","no","<p>Correct!</p>","z","","","","","","",""
"","null","html-keyboard-response","309","2.0.0","255630","pv2ysadqlm6","smaller","A17689315","Check perception times?","no","<div style=""font-size:60px;"">+</div>","null","","","","","","",""
"","52","image-keyboard-response","310","2.0.0","255683","pv2ysadqlm6","smaller","A17689315","Check perception times?","no","stimuli/21-Inongruent.jpg","m","","","","","left","z","false"
"","null","html-keyboard-response","311","2.0.0","260698","pv2ysadqlm6","smaller","A17689315","Check perception times?","no","<p>Incorrect.</p><p>Remember to select the <b>smaller</b> image.</p><p>Continuing in 5 seconds...</p>","null","","","","","","",""
"","null","html-keyboard-response","312","2.0.0","261712","pv2ysadqlm6","smaller","A17689315","Check perception times?","no","<div style=""font-size:60px;"">+</div>","null","","","","","","",""
"","374","image-keyboard-response","313","2.0.0","262087","pv2ysadqlm6","smaller","A17689315","Check perception times?","no","stimuli/2-Inongruent.jpg","z","","","","","left","z","true"
"","null","html-keyboard-response","314","2.0.0","262988","pv2ysadqlm6","smaller","A17689315","Check perception times?","no","<p>Correct!</p>","null","","","","","","",""
"","null","html-keyboard-response","315","2.0.0","264001","pv2ysadqlm6","smaller","A17689315","Check perception times?","no","<div style=""font-size:60px;"">+</div>","null","","","","","","",""
"","457","image-keyboard-response","316","2.0.0","264460","pv2ysadqlm6","smaller","A17689315","Check perception times?","no","stimuli/29-Congruent.jpg","m","","","","","right","m","true"
"","null","html-keyboard-response","317","2.0.0","265375","pv2ysadqlm6","smaller","A17689315","Check perception times?","no","<p>Correct!</p>","null","","","","","","",""
"","null","html-keyboard-response","318","2.0.0","266387","pv2ysadqlm6","smaller","A17689315","Check perception times?","no","<div style=""font-size:60px;"">+</div>","null","","","","","","",""
"","486","image-keyboard-response","319","2.0.0","266875","pv2ysadqlm6","smaller","A17689315","Check perception times?","no","stimuli/22-Inongruent.jpg","z","","","","","left","z","true"
"","null","html-keyboard-response","320","2.0.0","267776","pv2ysadqlm6","smaller","A17689315","Check perception times?","no","<p>Correct!</p>","null","","","","","","",""
"","null","html-keyboard-response","321","2.0.0","268789","pv2ysadqlm6","smaller","A17689315","Check perception times?","no","<div style=""font-size:60px;"">+</div>","null","","","","","","",""
"","482","image-keyboard-response","322","2.0.0","269273","pv2ysadqlm6","smaller","A17689315","Check perception times?","no","stimuli/9-Congruent.jpg","m","","","","","right","m","true"
"","null","html-keyboard-response","323","2.0.0","270173","pv2ysadqlm6","smaller","A17689315","Check perception times?","no","<p>Correct!</p>","null","","","","","","",""
"","null","html-keyboard-response","324","2.0.0","271180","pv2ysadqlm6","smaller","A17689315","Check perception times?","no","<div style=""font-size:60px;"">+</div>","null","","","","","","",""
"","891","image-keyboard-response","325","2.0.0","272072","pv2ysadqlm6","smaller","A17689315","Check perception times?","no","stimuli/5-Congruent.jpg","m","","","","","right","m","true"
"","750","html-keyboard-response","326","2.0.0","272822","pv2ysadqlm6","smaller","A17689315","Check perception times?","no","<p>Correct!</p>","m","","","","","","",""
"","null","html-keyboard-response","327","2.0.0","273829","pv2ysadqlm6","smaller","A17689315","Check perception times?","no","<div style=""font-size:60px;"">+</div>","null","","","","","","",""
"","500","image-keyboard-response","328","2.0.0","274330","pv2ysadqlm6","smaller","A17689315","Check perception times?","no","stimuli/8-Inongruent.jpg","z","","","","","left","z","true"
"","null","html-keyboard-response","329","2.0.0","275245","pv2ysadqlm6","smaller","A17689315","Check perception times?","no","<p>Correct!</p>","null","","","","","","",""
"","null","html-keyboard-response","330","2.0.0","276259","pv2ysadqlm6","smaller","A17689315","Check perception times?","no","<div style=""font-size:60px;"">+</div>","null","","","","","","",""
"","707","image-keyboard-response","331","2.0.0","276966","pv2ysadqlm6","smaller","A17689315","Check perception times?","no","stimuli/6-Congruent.jpg","m","","","","","right","m","true"
"","559","html-keyboard-response","332","2.0.0","277526","pv2ysadqlm6","smaller","A17689315","Check perception times?","no","<p>Correct!</p>","m","","","","","","",""
"","null","html-keyboard-response","333","2.0.0","278531","pv2ysadqlm6","smaller","A17689315","Check perception times?","no","<div style=""font-size:60px;"">+</div>","null","","","","","","",""
"","437","image-keyboard-response","334","2.0.0","278969","pv2ysadqlm6","smaller","A17689315","Check perception times?","no","stimuli/25-Inongruent.jpg","z","","","","","left","z","true"
"","323","html-keyboard-response","335","2.0.0","279293","pv2ysadqlm6","smaller","A17689315","Check perception times?","no","<p>Correct!</p>","z","","","","","","",""
"","null","html-keyboard-response","336","2.0.0","280302","pv2ysadqlm6","smaller","A17689315","Check perception times?","no","<div style=""font-size:60px;"">+</div>","null","","","","","","",""
"","587","image-keyboard-response","337","2.0.0","280890","pv2ysadqlm6","smaller","A17689315","Check perception times?","no","stimuli/11-Inongruent.jpg","z","","","","","left","z","true"
"","null","html-keyboard-response","338","2.0.0","281805","pv2ysadqlm6","smaller","A17689315","Check perception times?","no","<p>Correct!</p>","null","","","","","","",""
"","null","html-keyboard-response","339","2.0.0","282815","pv2ysadqlm6","smaller","A17689315","Check perception times?","no","<div style=""font-size:60px;"">+</div>","null","","","","","","",""
"","1995","image-keyboard-response","340","2.0.0","284810","pv2ysadqlm6","smaller","A17689315","Check perception times?","no","stimuli/23-Congruent.jpg","m","","","","","right","m","true"
"","null","html-keyboard-response","341","2.0.0","285721","pv2ysadqlm6","smaller","A17689315","Check perception times?","no","<p>Correct!</p>","null","","","","","","",""
"","null","html-keyboard-response","342","2.0.0","286734","pv2ysadqlm6","smaller","A17689315","Check perception times?","no","<div style=""font-size:60px;"">+</div>","null","","","","","","",""
"","1006","image-keyboard-response","343","2.0.0","287740","pv2ysadqlm6","smaller","A17689315","Check perception times?","no","stimuli/16-Inongruent.jpg","z","","","","","left","z","true"
"","null","html-keyboard-response","344","2.0.0","288641","pv2ysadqlm6","smaller","A17689315","Check perception times?","no","<p>Correct!</p>","null","","","","","","",""
"","null","html-keyboard-response","345","2.0.0","289650","pv2ysadqlm6","smaller","A17689315","Check perception times?","no","<div style=""font-size:60px;"">+</div>","null","","","","","","",""
"","610","image-keyboard-response","346","2.0.0","290261","pv2ysadqlm6","smaller","A17689315","Check perception times?","no","stimuli/10-Inongruent.jpg","z","","","","","left","z","true"
"","null","html-keyboard-response","347","2.0.0","291172","pv2ysadqlm6","smaller","A17689315","Check perception times?","no","<p>Correct!</p>","null","","","","","","",""
"","null","html-keyboard-response","348","2.0.0","292184","pv2ysadqlm6","smaller","A17689315","Check perception times?","no","<div style=""font-size:60px;"">+</div>","null","","","","","","",""
"","705","image-keyboard-response","349","2.0.0","292889","pv2ysadqlm6","smaller","A17689315","Check perception times?","no","stimuli/26-Congruent.jpg","m","","","","","right","m","true"
"","null","html-keyboard-response","350","2.0.0","293792","pv2ysadqlm6","smaller","A17689315","Check perception times?","no","<p>Correct!</p>","null","","","","","","",""
"","null","html-keyboard-response","351","2.0.0","294800","pv2ysadqlm6","smaller","A17689315","Check perception times?","no","<div style=""font-size:60px;"">+</div>","null","","","","","","",""
"","553","image-keyboard-response","352","2.0.0","295354","pv2ysadqlm6","smaller","A17689315","Check perception times?","no","stimuli/13-Congruent.jpg","m","","","","","right","m","true"
"","null","html-keyboard-response","353","2.0.0","296259","pv2ysadqlm6","smaller","A17689315","Check perception times?","no","<p>Correct!</p>","null","","","","","","",""
"","null","html-keyboard-response","354","2.0.0","297270","pv2ysadqlm6","smaller","A17689315","Check perception times?","no","<div style=""font-size:60px;"">+</div>","null","","","","","","",""
"","540","image-keyboard-response","355","2.0.0","297812","pv2ysadqlm6","smaller","A17689315","Check perception times?","no","stimuli/10-Congruent.jpg","m","","","","","right","m","true"
"","null","html-keyboard-response","356","2.0.0","298719","pv2ysadqlm6","smaller","A17689315","Check perception times?","no","<p>Correct!</p>","null","","","","","","",""
"","null","html-keyboard-response","357","2.0.0","299732","pv2ysadqlm6","smaller","A17689315","Check perception times?","no","<div style=""font-size:60px;"">+</div>","null","","","","","","",""
"","566","image-keyboard-response","358","2.0.0","300299","pv2ysadqlm6","smaller","A17689315","Check perception times?","no","stimuli/21-Inongruent.jpg","z","","","","","left","z","true"
"","null","html-keyboard-response","359","2.0.0","301213","pv2ysadqlm6","smaller","A17689315","Check perception times?","no","<p>Correct!</p>","null","","","","","","",""
"","null","html-keyboard-response","360","2.0.0","302223","pv2ysadqlm6","smaller","A17689315","Check perception times?","no","<div style=""font-size:60px;"">+</div>","null","","","","","","",""
"","544","image-keyboard-response","361","2.0.0","302769","pv2ysadqlm6","smaller","A17689315","Check perception times?","no","stimuli/7-Congruent.jpg","m","","","","","right","m","true"
"","null","html-keyboard-response","362","2.0.0","303677","pv2ysadqlm6","smaller","A17689315","Check perception times?","no","<p>Correct!</p>","null","","","","","","",""
"","null","html-keyboard-response","363","2.0.0","304686","pv2ysadqlm6","smaller","A17689315","Check perception times?","no","<div style=""font-size:60px;"">+</div>","null","","","","","","",""
"","402","image-keyboard-response","364","2.0.0","305089","pv2ysadqlm6","smaller","A17689315","Check perception times?","no","stimuli/5-Inongruent.jpg","z","","","","","left","z","true"
"","null","html-keyboard-response","365","2.0.0","305995","pv2ysadqlm6","smaller","A17689315","Check perception times?","no","<p>Correct!</p>","null","","","","","","",""
"","null","html-keyboard-response","366","2.0.0","307008","pv2ysadqlm6","smaller","A17689315","Check perception times?","no","<div style=""font-size:60px;"">+</div>","null","","","","","","",""
"","988","image-keyboard-response","367","2.0.0","307997","pv2ysadqlm6","smaller","A17689315","Check perception times?","no","stimuli/36-Congruent.jpg","m","","","","","right","m","true"
"","null","html-keyboard-response","368","2.0.0","308907","pv2ysadqlm6","smaller","A17689315","Check perception times?","no","<p>Correct!</p>","null","","","","","","",""
"","null","html-keyboard-response","369","2.0.0","309918","pv2ysadqlm6","smaller","A17689315","Check perception times?","no","<div style=""font-size:60px;"">+</div>","null","","","","","","",""
"","449","image-keyboard-response","370","2.0.0","310368","pv2ysadqlm6","smaller","A17689315","Check perception times?","no","stimuli/11-Congruent.jpg","m","","","","","right","m","true"
"","null","html-keyboard-response","371","2.0.0","311271","pv2ysadqlm6","smaller","A17689315","Check perception times?","no","<p>Correct!</p>","null","","","","","","",""
"","null","html-keyboard-response","372","2.0.0","312283","pv2ysadqlm6","smaller","A17689315","Check perception times?","no","<div style=""font-size:60px;"">+</div>","null","","","","","","",""
"","473","image-keyboard-response","373","2.0.0","312757","pv2ysadqlm6","smaller","A17689315","Check perception times?","no","stimuli/20-Inongruent.jpg","z","","","","","left","z","true"
"","null","html-keyboard-response","374","2.0.0","313663","pv2ysadqlm6","smaller","A17689315","Check perception times?","no","<p>Correct!</p>","null","","","","","","",""
"","null","html-keyboard-response","375","2.0.0","314673","pv2ysadqlm6","smaller","A17689315","Check perception times?","no","<div style=""font-size:60px;"">+</div>","null","","","","","","",""
"","424","image-keyboard-response","376","2.0.0","315098","pv2ysadqlm6","smaller","A17689315","Check perception times?","no","stimuli/10-Congruent.jpg","m","","","","","right","m","true"
"","null","html-keyboard-response","377","2.0.0","316011","pv2ysadqlm6","smaller","A17689315","Check perception times?","no","<p>Correct!</p>","null","","","","","","",""
"","null","html-keyboard-response","378","2.0.0","317024","pv2ysadqlm6","smaller","A17689315","Check perception times?","no","<div style=""font-size:60px;"">+</div>","null","","","","","","",""
"","560","image-keyboard-response","379","2.0.0","317585","pv2ysadqlm6","smaller","A17689315","Check perception times?","no","stimuli/8-Inongruent.jpg","z","","","","","left","z","true"
"","null","html-keyboard-response","380","2.0.0","318488","pv2ysadqlm6","smaller","A17689315","Check perception times?","no","<p>Correct!</p>","null","","","","","","",""
"","null","html-keyboard-response","381","2.0.0","319500","pv2ysadqlm6","smaller","A17689315","Check perception times?","no","<div style=""font-size:60px;"">+</div>","null","","","","","","",""
"","584","image-keyboard-response","382","2.0.0","320085","pv2ysadqlm6","smaller","A17689315","Check perception times?","no","stimuli/28-Inongruent.jpg","z","","","","","left","z","true"
"","null","html-keyboard-response","383","2.0.0","320991","pv2ysadqlm6","smaller","A17689315","Check perception times?","no","<p>Correct!</p>","null","","","","","","",""
"","null","html-keyboard-response","384","2.0.0","321998","pv2ysadqlm6","smaller","A17689315","Check perception times?","no","<div style=""font-size:60px;"">+</div>","null","","","","","","",""
"","523","image-keyboard-response","385","2.0.0","322523","pv2ysadqlm6","smaller","A17689315","Check perception times?","no","stimuli/24-Congruent.jpg","m","","","","","right","m","true"
"","null","html-keyboard-response","386","2.0.0","323431","pv2ysadqlm6","smaller","A17689315","Check perception times?","no","<p>Correct!</p>","null","","","","","","",""
"","null","html-keyboard-response","387","2.0.0","324440","pv2ysadqlm6","smaller","A17689315","Check perception times?","no","<div style=""font-size:60px;"">+</div>","null","","","","","","",""
"","447","image-keyboard-response","388","2.0.0","324888","pv2ysadqlm6","smaller","A17689315","Check perception times?","no","stimuli/20-Congruent.jpg","m","","","","","right","m","true"
"","null","html-keyboard-response","389","2.0.0","325792","pv2ysadqlm6","smaller","A17689315","Check perception times?","no","<p>Correct!</p>","null","","","","","","",""
"","null","html-keyboard-response","390","2.0.0","326804","pv2ysadqlm6","smaller","A17689315","Check perception times?","no","<div style=""font-size:60px;"">+</div>","null","","","","","","",""
"","464","image-keyboard-response","391","2.0.0","327269","pv2ysadqlm6","smaller","A17689315","Check perception times?","no","stimuli/15-Congruent.jpg","m","","","","","right","m","true"
"","null","html-keyboard-response","392","2.0.0","328173","pv2ysadqlm6","smaller","A17689315","Check perception times?","no","<p>Correct!</p>","null","","","","","","",""
"","null","html-keyboard-response","393","2.0.0","329186","pv2ysadqlm6","smaller","A17689315","Check perception times?","no","<div style=""font-size:60px;"">+</div>","null","","","","","","",""
"","543","image-keyboard-response","394","2.0.0","329730","pv2ysadqlm6","smaller","A17689315","Check perception times?","no","stimuli/16-Congruent.jpg","m","","","","","right","m","true"
"","null","html-keyboard-response","395","2.0.0","330646","pv2ysadqlm6","smaller","A17689315","Check perception times?","no","<p>Correct!</p>","null","","","","","","",""
"","null","html-keyboard-response","396","2.0.0","331658","pv2ysadqlm6","smaller","A17689315","Check perception times?","no","<div style=""font-size:60px;"">+</div>","null","","","","","","",""
"","873","image-keyboard-response","397","2.0.0","332532","pv2ysadqlm6","smaller","A17689315","Check perception times?","no","stimuli/31-Inongruent.jpg","z","","","","","left","z","true"
"","null","html-keyboard-response","398","2.0.0","333434","pv2ysadqlm6","smaller","A17689315","Check perception times?","no","<p>Correct!</p>","null","","","","","","",""
"","null","html-keyboard-response","399","2.0.0","334445","pv2ysadqlm6","smaller","A17689315","Check perception times?","no","<div style=""font-size:60px;"">+</div>","null","","","","","","",""
"","576","image-keyboard-response","400","2.0.0","335021","pv2ysadqlm6","smaller","A17689315","Check perception times?","no","stimuli/17-Congruent.jpg","m","","","","","right","m","true"
"","null","html-keyboard-response","401","2.0.0","335923","pv2ysadqlm6","smaller","A17689315","Check perception times?","no","<p>Correct!</p>","null","","","","","","",""
"","null","html-keyboard-response","402","2.0.0","336935","pv2ysadqlm6","smaller","A17689315","Check perception times?","no","<div style=""font-size:60px;"">+</div>","null","","","","","","",""
"","1048","image-keyboard-response","403","2.0.0","337984","pv2ysadqlm6","smaller","A17689315","Check perception times?","no","stimuli/23-Inongruent.jpg","z","","","","","left","z","true"
"","null","html-keyboard-response","404","2.0.0","338894","pv2ysadqlm6","smaller","A17689315","Check perception times?","no","<p>Correct!</p>","null","","","","","","",""
"","null","html-keyboard-response","405","2.0.0","339907","pv2ysadqlm6","smaller","A17689315","Check perception times?","no","<div style=""font-size:60px;"">+</div>","null","","","","","","",""
"","473","image-keyboard-response","406","2.0.0","340381","pv2ysadqlm6","smaller","A17689315","Check perception times?","no","stimuli/18-Inongruent.jpg","z","","","","","left","z","true"
"","null","html-keyboard-response","407","2.0.0","341288","pv2ysadqlm6","smaller","A17689315","Check perception times?","no","<p>Correct!</p>","null","","","","","","",""
"","null","html-keyboard-response","408","2.0.0","342298","pv2ysadqlm6","smaller","A17689315","Check perception times?","no","<div style=""font-size:60px;"">+</div>","null","","","","","","",""
"","473","image-keyboard-response","409","2.0.0","342772","pv2ysadqlm6","smaller","A17689315","Check perception times?","no","stimuli/30-Inongruent.jpg","z","","","","","left","z","true"
"","null","html-keyboard-response","410","2.0.0","343687","pv2ysadqlm6","smaller","A17689315","Check perception times?","no","<p>Correct!</p>","null","","","","","","",""
"","null","html-keyboard-response","411","2.0.0","344699","pv2ysadqlm6","smaller","A17689315","Check perception times?","no","<div style=""font-size:60px;"">+</div>","null","","","","","","",""
"","476","image-keyboard-response","412","2.0.0","345176","pv2ysadqlm6","smaller","A17689315","Check perception times?","no","stimuli/25-Congruent.jpg","m","","","","","right","m","true"
"","null","html-keyboard-response","413","2.0.0","346081","pv2ysadqlm6","smaller","A17689315","Check perception times?","no","<p>Correct!</p>","null","","","","","","",""
"","null","html-keyboard-response","414","2.0.0","347094","pv2ysadqlm6","smaller","A17689315","Check perception times?","no","<div style=""font-size:60px;"">+</div>","null","","","","","","",""
"","390","image-keyboard-response","415","2.0.0","347485","pv2ysadqlm6","smaller","A17689315","Check perception times?","no","stimuli/15-Inongruent.jpg","z","","","","","left","z","true"
"","null","html-keyboard-response","416","2.0.0","348400","pv2ysadqlm6","smaller","A17689315","Check perception times?","no","<p>Correct!</p>","null","","","","","","",""
"","null","html-keyboard-response","417","2.0.0","349410","pv2ysadqlm6","smaller","A17689315","Check perception times?","no","<div style=""font-size:60px;"">+</div>","null","","","","","","",""
"","661","image-keyboard-response","418","2.0.0","350072","pv2ysadqlm6","smaller","A17689315","Check perception times?","no","stimuli/15-Congruent.jpg","m","","","","","right","m","true"
"","null","html-keyboard-response","419","2.0.0","350978","pv2ysadqlm6","smaller","A17689315","Check perception times?","no","<p>Correct!</p>","null","","","","","","",""
"","null","html-keyboard-response","420","2.0.0","351989","pv2ysadqlm6","smaller","A17689315","Check perception times?","no","<div style=""font-size:60px;"">+</div>","null","","","","","","",""
"","750","image-keyboard-response","421","2.0.0","352740","pv2ysadqlm6","smaller","A17689315","Check perception times?","no","stimuli/29-Congruent.jpg","m","","","","","right","m","true"
"","null","html-keyboard-response","422","2.0.0","353641","pv2ysadqlm6","smaller","A17689315","Check perception times?","no","<p>Correct!</p>","null","","","","","","",""
"","null","html-keyboard-response","423","2.0.0","354646","pv2ysadqlm6","smaller","A17689315","Check perception times?","no","<div style=""font-size:60px;"">+</div>","null","","","","","","",""
"","508","image-keyboard-response","424","2.0.0","355155","pv2ysadqlm6","smaller","A17689315","Check perception times?","no","stimuli/17-Inongruent.jpg","z","","","","","left","z","true"
"","null","html-keyboard-response","425","2.0.0","356060","pv2ysadqlm6","smaller","A17689315","Check perception times?","no","<p>Correct!</p>","null","","","","","","",""
"","null","html-keyboard-response","426","2.0.0","357075","pv2ysadqlm6","smaller","A17689315","Check perception times?","no","<div style=""font-size:60px;"">+</div>","null","","","","","","",""
"","519","image-keyboard-response","427","2.0.0","357594","pv2ysadqlm6","smaller","A17689315","Check perception times?","no","stimuli/26-Congruent.jpg","m","","","","","right","m","true"
"","null","html-keyboard-response","428","2.0.0","358508","pv2ysadqlm6","smaller","A17689315","Check perception times?","no","<p>Correct!</p>","null","","","","","","",""
"","null","html-keyboard-response","429","2.0.0","359509","pv2ysadqlm6","smaller","A17689315","Check perception times?","no","<div style=""font-size:60px;"">+</div>","null","","","","","","",""
"","419","image-keyboard-response","430","2.0.0","359929","pv2ysadqlm6","smaller","A17689315","Check perception times?","no","stimuli/21-Congruent.jpg","m","","","","","right","m","true"
"","null","html-keyboard-response","431","2.0.0","360831","pv2ysadqlm6","smaller","A17689315","Check perception times?","no","<p>Correct!</p>","null","","","","","","",""
"","null","html-keyboard-response","432","2.0.0","361840","pv2ysadqlm6","smaller","A17689315","Check perception times?","no","<div style=""font-size:60px;"">+</div>","null","","","","","","",""
"","904","image-keyboard-response","433","2.0.0","362746","pv2ysadqlm6","smaller","A17689315","Check perception times?","no","stimuli/2-Congruent.jpg","m","","","","","right","m","true"
"","null","html-keyboard-response","434","2.0.0","363658","pv2ysadqlm6","smaller","A17689315","Check perception times?","no","<p>Correct!</p>","null","","","","","","",""
"","null","html-keyboard-response","435","2.0.0","364670","pv2ysadqlm6","smaller","A17689315","Check perception times?","no","<div style=""font-size:60px;"">+</div>","null","","","","","","",""
"","907","image-keyboard-response","436","2.0.0","365577","pv2ysadqlm6","smaller","A17689315","Check perception times?","no","stimuli/19-Congruent.jpg","m","","","","","right","m","true"
"","null","html-keyboard-response","437","2.0.0","366491","pv2ysadqlm6","smaller","A17689315","Check perception times?","no","<p>Correct!</p>","null","","","","","","",""
"","78","html-keyboard-response","438","2.0.0","366570","pv2ysadqlm6","smaller","A17689315","Check perception times?","no","<p>You have completed the experiment!</p>
              <p>Your accuracy was: 97.91666666666666%.</p>
              <p>Thank you for participating.</p>
              <p>Press any key to continue.</p>","m","","","","","","",""
"","13703","survey-text","439","2.0.0","380275","pv2ysadqlm6","smaller","A17689315","Check perception times?","no","","{""participant_thoughts"":""Check perception times?""}","","","","","","",""
"","2210","survey-text","440","2.0.0","382487","pv2ysadqlm6","smaller","A17689315","Check perception times?","no","","{""participant_difficulties"":""no""}","","","","","","",""
"","3223","html-keyboard-response","441","2.0.0","385711","pv2ysadqlm6","smaller","A17689315","Check perception times?","no","<p>The purpose of this experiment is to determine if the real world size of a familiar object is automatically processed when viewed.</p><p>Thank you for participating!</p>","j","","","","","","",""
