"success","rt","trial_type","trial_index","plugin_version","time_elapsed","random_id","condition","participant","participant_thoughts","participant_difficulties","stimulus","response","timeout","failed_images","failed_audio","failed_video","correct_response","correct_response_key","correct"
"true","2675","fullscreen","0","null","3687","pvxlvt7jqr5","bigger","hyena"," changing the size of images from its actual size in real life to see if people would notice","Yes, it was minor. I think the instructions stated to press N for the image but when I pressed N it did nothing, but after a couple trials I learned I had to press M","","","","","","","","",""
"","1763","html-keyboard-response","1","2.0.0","5455","pvxlvt7jqr5","bigger","hyena"," changing the size of images from its actual size in real life to see if people would notice","Yes, it was minor. I think the instructions stated to press N for the image but when I pressed N it did nothing, but after a couple trials I learned I had to press M","Welcome to the Size Stroop experiment. Press any key to begin."," ","","","","","","",""
"","null","html-keyboard-response","2","2.0.0","6459","pvxlvt7jqr5","bigger","hyena"," changing the size of images from its actual size in real life to see if people would notice","Yes, it was minor. I think the instructions stated to press N for the image but when I pressed N it did nothing, but after a couple trials I learned I had to press M","This trial will be in fullscreen mode.","null","","","","","","",""
"","3288","survey-text","3","2.0.0","9759","pvxlvt7jqr5","bigger","hyena"," changing the size of images from its actual size in real life to see if people would notice","Yes, it was minor. I think the instructions stated to press N for the image but when I pressed N it did nothing, but after a couple trials I learned I had to press M","","{""participant_id"":""hyena""}","","","","","","",""
"","5138","html-keyboard-response","4","2.0.0","14899","pvxlvt7jqr5","bigger","hyena"," changing the size of images from its actual size in real life to see if people would notice","Yes, it was minor. I think the instructions stated to press N for the image but when I pressed N it did nothing, but after a couple trials I learned I had to press M","<p>In this experiment, two images will appear on the screen. Identify the <strong>larger</strong> images.</p>
              <p>If the image on the left is larger, press ""z"". If the image on the right is larger, press ""m"".</p>
              <p>Press any key to begin.</p>"," ","","","","","","",""
"true","","preload","5","2.0.0","15379","pvxlvt7jqr5","bigger","hyena"," changing the size of images from its actual size in real life to see if people would notice","Yes, it was minor. I think the instructions stated to press N for the image but when I pressed N it did nothing, but after a couple trials I learned I had to press M","","","false","[]","[]","[]","","",""
"","null","html-keyboard-response","6","2.0.0","16389","pvxlvt7jqr5","bigger","hyena"," changing the size of images from its actual size in real life to see if people would notice","Yes, it was minor. I think the instructions stated to press N for the image but when I pressed N it did nothing, but after a couple trials I learned I had to press M","<div style=""font-size:60px;"">+</div>","null","","","","","","",""
"","1988","image-keyboard-response","7","2.0.0","18396","pvxlvt7jqr5","bigger","hyena"," changing the size of images from its actual size in real life to see if people would notice","Yes, it was minor. I think the instructions stated to press N for the image but when I pressed N it did nothing, but after a couple trials I learned I had to press M","stimuli/33-Congruent.jpg","z","","","","","left","z","true"
"","null","html-keyboard-response","8","2.0.0","19308","pvxlvt7jqr5","bigger","hyena"," changing the size of images from its actual size in real life to see if people would notice","Yes, it was minor. I think the instructions stated to press N for the image but when I pressed N it did nothing, but after a couple trials I learned I had to press M","<p>Correct!</p>","null","","","","","","",""
"","null","html-keyboard-response","9","2.0.0","20319","pvxlvt7jqr5","bigger","hyena"," changing the size of images from its actual size in real life to see if people would notice","Yes, it was minor. I think the instructions stated to press N for the image but when I pressed N it did nothing, but after a couple trials I learned I had to press M","<div style=""font-size:60px;"">+</div>","null","","","","","","",""
"","4899","image-keyboard-response","10","2.0.0","25227","pvxlvt7jqr5","bigger","hyena"," changing the size of images from its actual size in real life to see if people would notice","Yes, it was minor. I think the instructions stated to press N for the image but when I pressed N it did nothing, but after a couple trials I learned I had to press M","stimuli/12-Inongruent.jpg","z","","","","","right","m","false"
"","null","html-keyboard-response","11","2.0.0","30241","pvxlvt7jqr5","bigger","hyena"," changing the size of images from its actual size in real life to see if people would notice","Yes, it was minor. I think the instructions stated to press N for the image but when I pressed N it did nothing, but after a couple trials I learned I had to press M","<p>Incorrect.</p><p>Remember to select the <b>bigger</b> image.</p><p>Continuing in 5 seconds...</p>","null","","","","","","",""
"","null","html-keyboard-response","12","2.0.0","31245","pvxlvt7jqr5","bigger","hyena"," changing the size of images from its actual size in real life to see if people would notice","Yes, it was minor. I think the instructions stated to press N for the image but when I pressed N it did nothing, but after a couple trials I learned I had to press M","<div style=""font-size:60px;"">+</div>","null","","","","","","",""
"","2352","image-keyboard-response","13","2.0.0","33606","pvxlvt7jqr5","bigger","hyena"," changing the size of images from its actual size in real life to see if people would notice","Yes, it was minor. I think the instructions stated to press N for the image but when I pressed N it did nothing, but after a couple trials I learned I had to press M","stimuli/11-Congruent.jpg","z","","","","","left","z","true"
"","null","html-keyboard-response","14","2.0.0","34521","pvxlvt7jqr5","bigger","hyena"," changing the size of images from its actual size in real life to see if people would notice","Yes, it was minor. I think the instructions stated to press N for the image but when I pressed N it did nothing, but after a couple trials I learned I had to press M","<p>Correct!</p>","null","","","","","","",""
"","null","html-keyboard-response","15","2.0.0","35539","pvxlvt7jqr5","bigger","hyena"," changing the size of images from its actual size in real life to see if people would notice","Yes, it was minor. I think the instructions stated to press N for the image but when I pressed N it did nothing, but after a couple trials I learned I had to press M","<div style=""font-size:60px;"">+</div>","null","","","","","","",""
"","1526","image-keyboard-response","16","2.0.0","37075","pvxlvt7jqr5","bigger","hyena"," changing the size of images from its actual size in real life to see if people would notice","Yes, it was minor. I think the instructions stated to press N for the image but when I pressed N it did nothing, but after a couple trials I learned I had to press M","stimuli/16-Congruent.jpg","z","","","","","left","z","true"
"","null","html-keyboard-response","17","2.0.0","37986","pvxlvt7jqr5","bigger","hyena"," changing the size of images from its actual size in real life to see if people would notice","Yes, it was minor. I think the instructions stated to press N for the image but when I pressed N it did nothing, but after a couple trials I learned I had to press M","<p>Correct!</p>","null","","","","","","",""
"","null","html-keyboard-response","18","2.0.0","38990","pvxlvt7jqr5","bigger","hyena"," changing the size of images from its actual size in real life to see if people would notice","Yes, it was minor. I think the instructions stated to press N for the image but when I pressed N it did nothing, but after a couple trials I learned I had to press M","<div style=""font-size:60px;"">+</div>","null","","","","","","",""
"","2949","image-keyboard-response","19","2.0.0","41949","pvxlvt7jqr5","bigger","hyena"," changing the size of images from its actual size in real life to see if people would notice","Yes, it was minor. I think the instructions stated to press N for the image but when I pressed N it did nothing, but after a couple trials I learned I had to press M","stimuli/34-Inongruent.jpg","m","","","","","right","m","true"
"","null","html-keyboard-response","20","2.0.0","42856","pvxlvt7jqr5","bigger","hyena"," changing the size of images from its actual size in real life to see if people would notice","Yes, it was minor. I think the instructions stated to press N for the image but when I pressed N it did nothing, but after a couple trials I learned I had to press M","<p>Correct!</p>","null","","","","","","",""
"","null","html-keyboard-response","21","2.0.0","43859","pvxlvt7jqr5","bigger","hyena"," changing the size of images from its actual size in real life to see if people would notice","Yes, it was minor. I think the instructions stated to press N for the image but when I pressed N it did nothing, but after a couple trials I learned I had to press M","<div style=""font-size:60px;"">+</div>","null","","","","","","",""
"","2505","image-keyboard-response","22","2.0.0","46373","pvxlvt7jqr5","bigger","hyena"," changing the size of images from its actual size in real life to see if people would notice","Yes, it was minor. I think the instructions stated to press N for the image but when I pressed N it did nothing, but after a couple trials I learned I had to press M","stimuli/22-Congruent.jpg","z","","","","","left","z","true"
"","null","html-keyboard-response","23","2.0.0","47275","pvxlvt7jqr5","bigger","hyena"," changing the size of images from its actual size in real life to see if people would notice","Yes, it was minor. I think the instructions stated to press N for the image but when I pressed N it did nothing, but after a couple trials I learned I had to press M","<p>Correct!</p>","null","","","","","","",""
"","null","html-keyboard-response","24","2.0.0","48281","pvxlvt7jqr5","bigger","hyena"," changing the size of images from its actual size in real life to see if people would notice","Yes, it was minor. I think the instructions stated to press N for the image but when I pressed N it did nothing, but after a couple trials I learned I had to press M","<div style=""font-size:60px;"">+</div>","null","","","","","","",""
"","1245","image-keyboard-response","25","2.0.0","49535","pvxlvt7jqr5","bigger","hyena"," changing the size of images from its actual size in real life to see if people would notice","Yes, it was minor. I think the instructions stated to press N for the image but when I pressed N it did nothing, but after a couple trials I learned I had to press M","stimuli/32-Congruent.jpg","z","","","","","left","z","true"
"","null","html-keyboard-response","26","2.0.0","50445","pvxlvt7jqr5","bigger","hyena"," changing the size of images from its actual size in real life to see if people would notice","Yes, it was minor. I think the instructions stated to press N for the image but when I pressed N it did nothing, but after a couple trials I learned I had to press M","<p>Correct!</p>","null","","","","","","",""
"","null","html-keyboard-response","27","2.0.0","51461","pvxlvt7jqr5","bigger","hyena"," changing the size of images from its actual size in real life to see if people would notice","Yes, it was minor. I think the instructions stated to press N for the image but when I pressed N it did nothing, but after a couple trials I learned I had to press M","<div style=""font-size:60px;"">+</div>","null","","","","","","",""
"","1179","image-keyboard-response","28","2.0.0","52648","pvxlvt7jqr5","bigger","hyena"," changing the size of images from its actual size in real life to see if people would notice","Yes, it was minor. I think the instructions stated to press N for the image but when I pressed N it did nothing, but after a couple trials I learned I had to press M","stimuli/31-Congruent.jpg","z","","","","","left","z","true"
"","null","html-keyboard-response","29","2.0.0","53554","pvxlvt7jqr5","bigger","hyena"," changing the size of images from its actual size in real life to see if people would notice","Yes, it was minor. I think the instructions stated to press N for the image but when I pressed N it did nothing, but after a couple trials I learned I had to press M","<p>Correct!</p>","null","","","","","","",""
"","null","html-keyboard-response","30","2.0.0","54558","pvxlvt7jqr5","bigger","hyena"," changing the size of images from its actual size in real life to see if people would notice","Yes, it was minor. I think the instructions stated to press N for the image but when I pressed N it did nothing, but after a couple trials I learned I had to press M","<div style=""font-size:60px;"">+</div>","null","","","","","","",""
"","1810","image-keyboard-response","31","2.0.0","56377","pvxlvt7jqr5","bigger","hyena"," changing the size of images from its actual size in real life to see if people would notice","Yes, it was minor. I think the instructions stated to press N for the image but when I pressed N it did nothing, but after a couple trials I learned I had to press M","stimuli/8-Inongruent.jpg","m","","","","","right","m","true"
"","null","html-keyboard-response","32","2.0.0","57292","pvxlvt7jqr5","bigger","hyena"," changing the size of images from its actual size in real life to see if people would notice","Yes, it was minor. I think the instructions stated to press N for the image but when I pressed N it did nothing, but after a couple trials I learned I had to press M","<p>Correct!</p>","null","","","","","","",""
"","null","html-keyboard-response","33","2.0.0","58306","pvxlvt7jqr5","bigger","hyena"," changing the size of images from its actual size in real life to see if people would notice","Yes, it was minor. I think the instructions stated to press N for the image but when I pressed N it did nothing, but after a couple trials I learned I had to press M","<div style=""font-size:60px;"">+</div>","null","","","","","","",""
"","1348","image-keyboard-response","34","2.0.0","59663","pvxlvt7jqr5","bigger","hyena"," changing the size of images from its actual size in real life to see if people would notice","Yes, it was minor. I think the instructions stated to press N for the image but when I pressed N it did nothing, but after a couple trials I learned I had to press M","stimuli/29-Inongruent.jpg","m","","","","","right","m","true"
"","null","html-keyboard-response","35","2.0.0","60571","pvxlvt7jqr5","bigger","hyena"," changing the size of images from its actual size in real life to see if people would notice","Yes, it was minor. I think the instructions stated to press N for the image but when I pressed N it did nothing, but after a couple trials I learned I had to press M","<p>Correct!</p>","null","","","","","","",""
"","null","html-keyboard-response","36","2.0.0","61575","pvxlvt7jqr5","bigger","hyena"," changing the size of images from its actual size in real life to see if people would notice","Yes, it was minor. I think the instructions stated to press N for the image but when I pressed N it did nothing, but after a couple trials I learned I had to press M","<div style=""font-size:60px;"">+</div>","null","","","","","","",""
"","1198","image-keyboard-response","37","2.0.0","62781","pvxlvt7jqr5","bigger","hyena"," changing the size of images from its actual size in real life to see if people would notice","Yes, it was minor. I think the instructions stated to press N for the image but when I pressed N it did nothing, but after a couple trials I learned I had to press M","stimuli/26-Inongruent.jpg","m","","","","","right","m","true"
"","null","html-keyboard-response","38","2.0.0","63693","pvxlvt7jqr5","bigger","hyena"," changing the size of images from its actual size in real life to see if people would notice","Yes, it was minor. I think the instructions stated to press N for the image but when I pressed N it did nothing, but after a couple trials I learned I had to press M","<p>Correct!</p>","null","","","","","","",""
"","null","html-keyboard-response","39","2.0.0","64703","pvxlvt7jqr5","bigger","hyena"," changing the size of images from its actual size in real life to see if people would notice","Yes, it was minor. I think the instructions stated to press N for the image but when I pressed N it did nothing, but after a couple trials I learned I had to press M","<div style=""font-size:60px;"">+</div>","null","","","","","","",""
"","2616","image-keyboard-response","40","2.0.0","67323","pvxlvt7jqr5","bigger","hyena"," changing the size of images from its actual size in real life to see if people would notice","Yes, it was minor. I think the instructions stated to press N for the image but when I pressed N it did nothing, but after a couple trials I learned I had to press M","stimuli/28-Inongruent.jpg","m","","","","","right","m","true"
"","null","html-keyboard-response","41","2.0.0","68229","pvxlvt7jqr5","bigger","hyena"," changing the size of images from its actual size in real life to see if people would notice","Yes, it was minor. I think the instructions stated to press N for the image but when I pressed N it did nothing, but after a couple trials I learned I had to press M","<p>Correct!</p>","null","","","","","","",""
"","null","html-keyboard-response","42","2.0.0","69244","pvxlvt7jqr5","bigger","hyena"," changing the size of images from its actual size in real life to see if people would notice","Yes, it was minor. I think the instructions stated to press N for the image but when I pressed N it did nothing, but after a couple trials I learned I had to press M","<div style=""font-size:60px;"">+</div>","null","","","","","","",""
"","1746","image-keyboard-response","43","2.0.0","71001","pvxlvt7jqr5","bigger","hyena"," changing the size of images from its actual size in real life to see if people would notice","Yes, it was minor. I think the instructions stated to press N for the image but when I pressed N it did nothing, but after a couple trials I learned I had to press M","stimuli/25-Inongruent.jpg","m","","","","","right","m","true"
"","null","html-keyboard-response","44","2.0.0","71913","pvxlvt7jqr5","bigger","hyena"," changing the size of images from its actual size in real life to see if people would notice","Yes, it was minor. I think the instructions stated to press N for the image but when I pressed N it did nothing, but after a couple trials I learned I had to press M","<p>Correct!</p>","null","","","","","","",""
"","null","html-keyboard-response","45","2.0.0","72920","pvxlvt7jqr5","bigger","hyena"," changing the size of images from its actual size in real life to see if people would notice","Yes, it was minor. I think the instructions stated to press N for the image but when I pressed N it did nothing, but after a couple trials I learned I had to press M","<div style=""font-size:60px;"">+</div>","null","","","","","","",""
"","1236","image-keyboard-response","46","2.0.0","74166","pvxlvt7jqr5","bigger","hyena"," changing the size of images from its actual size in real life to see if people would notice","Yes, it was minor. I think the instructions stated to press N for the image but when I pressed N it did nothing, but after a couple trials I learned I had to press M","stimuli/15-Congruent.jpg","z","","","","","left","z","true"
"","null","html-keyboard-response","47","2.0.0","75082","pvxlvt7jqr5","bigger","hyena"," changing the size of images from its actual size in real life to see if people would notice","Yes, it was minor. I think the instructions stated to press N for the image but when I pressed N it did nothing, but after a couple trials I learned I had to press M","<p>Correct!</p>","null","","","","","","",""
"","null","html-keyboard-response","48","2.0.0","76087","pvxlvt7jqr5","bigger","hyena"," changing the size of images from its actual size in real life to see if people would notice","Yes, it was minor. I think the instructions stated to press N for the image but when I pressed N it did nothing, but after a couple trials I learned I had to press M","<div style=""font-size:60px;"">+</div>","null","","","","","","",""
"","1126","image-keyboard-response","49","2.0.0","77218","pvxlvt7jqr5","bigger","hyena"," changing the size of images from its actual size in real life to see if people would notice","Yes, it was minor. I think the instructions stated to press N for the image but when I pressed N it did nothing, but after a couple trials I learned I had to press M","stimuli/17-Congruent.jpg","z","","","","","left","z","true"
"","null","html-keyboard-response","50","2.0.0","78122","pvxlvt7jqr5","bigger","hyena"," changing the size of images from its actual size in real life to see if people would notice","Yes, it was minor. I think the instructions stated to press N for the image but when I pressed N it did nothing, but after a couple trials I learned I had to press M","<p>Correct!</p>","null","","","","","","",""
"","null","html-keyboard-response","51","2.0.0","79136","pvxlvt7jqr5","bigger","hyena"," changing the size of images from its actual size in real life to see if people would notice","Yes, it was minor. I think the instructions stated to press N for the image but when I pressed N it did nothing, but after a couple trials I learned I had to press M","<div style=""font-size:60px;"">+</div>","null","","","","","","",""
"","1088","image-keyboard-response","52","2.0.0","80235","pvxlvt7jqr5","bigger","hyena"," changing the size of images from its actual size in real life to see if people would notice","Yes, it was minor. I think the instructions stated to press N for the image but when I pressed N it did nothing, but after a couple trials I learned I had to press M","stimuli/3-Congruent.jpg","z","","","","","left","z","true"
"","null","html-keyboard-response","53","2.0.0","81144","pvxlvt7jqr5","bigger","hyena"," changing the size of images from its actual size in real life to see if people would notice","Yes, it was minor. I think the instructions stated to press N for the image but when I pressed N it did nothing, but after a couple trials I learned I had to press M","<p>Correct!</p>","null","","","","","","",""
"","null","html-keyboard-response","54","2.0.0","82153","pvxlvt7jqr5","bigger","hyena"," changing the size of images from its actual size in real life to see if people would notice","Yes, it was minor. I think the instructions stated to press N for the image but when I pressed N it did nothing, but after a couple trials I learned I had to press M","<div style=""font-size:60px;"">+</div>","null","","","","","","",""
"","1922","image-keyboard-response","55","2.0.0","84084","pvxlvt7jqr5","bigger","hyena"," changing the size of images from its actual size in real life to see if people would notice","Yes, it was minor. I think the instructions stated to press N for the image but when I pressed N it did nothing, but after a couple trials I learned I had to press M","stimuli/7-Inongruent.jpg","m","","","","","right","m","true"
"","null","html-keyboard-response","56","2.0.0","84989","pvxlvt7jqr5","bigger","hyena"," changing the size of images from its actual size in real life to see if people would notice","Yes, it was minor. I think the instructions stated to press N for the image but when I pressed N it did nothing, but after a couple trials I learned I had to press M","<p>Correct!</p>","null","","","","","","",""
"","null","html-keyboard-response","57","2.0.0","85996","pvxlvt7jqr5","bigger","hyena"," changing the size of images from its actual size in real life to see if people would notice","Yes, it was minor. I think the instructions stated to press N for the image but when I pressed N it did nothing, but after a couple trials I learned I had to press M","<div style=""font-size:60px;"">+</div>","null","","","","","","",""
"","1054","image-keyboard-response","58","2.0.0","87059","pvxlvt7jqr5","bigger","hyena"," changing the size of images from its actual size in real life to see if people would notice","Yes, it was minor. I think the instructions stated to press N for the image but when I pressed N it did nothing, but after a couple trials I learned I had to press M","stimuli/3-Inongruent.jpg","m","","","","","right","m","true"
"","null","html-keyboard-response","59","2.0.0","87966","pvxlvt7jqr5","bigger","hyena"," changing the size of images from its actual size in real life to see if people would notice","Yes, it was minor. I think the instructions stated to press N for the image but when I pressed N it did nothing, but after a couple trials I learned I had to press M","<p>Correct!</p>","null","","","","","","",""
"","null","html-keyboard-response","60","2.0.0","88980","pvxlvt7jqr5","bigger","hyena"," changing the size of images from its actual size in real life to see if people would notice","Yes, it was minor. I think the instructions stated to press N for the image but when I pressed N it did nothing, but after a couple trials I learned I had to press M","<div style=""font-size:60px;"">+</div>","null","","","","","","",""
"","1171","image-keyboard-response","61","2.0.0","90164","pvxlvt7jqr5","bigger","hyena"," changing the size of images from its actual size in real life to see if people would notice","Yes, it was minor. I think the instructions stated to press N for the image but when I pressed N it did nothing, but after a couple trials I learned I had to press M","stimuli/36-Congruent.jpg","z","","","","","left","z","true"
"","null","html-keyboard-response","62","2.0.0","91072","pvxlvt7jqr5","bigger","hyena"," changing the size of images from its actual size in real life to see if people would notice","Yes, it was minor. I think the instructions stated to press N for the image but when I pressed N it did nothing, but after a couple trials I learned I had to press M","<p>Correct!</p>","null","","","","","","",""
"","null","html-keyboard-response","63","2.0.0","92082","pvxlvt7jqr5","bigger","hyena"," changing the size of images from its actual size in real life to see if people would notice","Yes, it was minor. I think the instructions stated to press N for the image but when I pressed N it did nothing, but after a couple trials I learned I had to press M","<div style=""font-size:60px;"">+</div>","null","","","","","","",""
"","1404","image-keyboard-response","64","2.0.0","93495","pvxlvt7jqr5","bigger","hyena"," changing the size of images from its actual size in real life to see if people would notice","Yes, it was minor. I think the instructions stated to press N for the image but when I pressed N it did nothing, but after a couple trials I learned I had to press M","stimuli/12-Inongruent.jpg","m","","","","","right","m","true"
"","null","html-keyboard-response","65","2.0.0","94401","pvxlvt7jqr5","bigger","hyena"," changing the size of images from its actual size in real life to see if people would notice","Yes, it was minor. I think the instructions stated to press N for the image but when I pressed N it did nothing, but after a couple trials I learned I had to press M","<p>Correct!</p>","null","","","","","","",""
"","null","html-keyboard-response","66","2.0.0","95410","pvxlvt7jqr5","bigger","hyena"," changing the size of images from its actual size in real life to see if people would notice","Yes, it was minor. I think the instructions stated to press N for the image but when I pressed N it did nothing, but after a couple trials I learned I had to press M","<div style=""font-size:60px;"">+</div>","null","","","","","","",""
"","1088","image-keyboard-response","67","2.0.0","96506","pvxlvt7jqr5","bigger","hyena"," changing the size of images from its actual size in real life to see if people would notice","Yes, it was minor. I think the instructions stated to press N for the image but when I pressed N it did nothing, but after a couple trials I learned I had to press M","stimuli/8-Congruent.jpg","z","","","","","left","z","true"
"","null","html-keyboard-response","68","2.0.0","97416","pvxlvt7jqr5","bigger","hyena"," changing the size of images from its actual size in real life to see if people would notice","Yes, it was minor. I think the instructions stated to press N for the image but when I pressed N it did nothing, but after a couple trials I learned I had to press M","<p>Correct!</p>","null","","","","","","",""
"","null","html-keyboard-response","69","2.0.0","98428","pvxlvt7jqr5","bigger","hyena"," changing the size of images from its actual size in real life to see if people would notice","Yes, it was minor. I think the instructions stated to press N for the image but when I pressed N it did nothing, but after a couple trials I learned I had to press M","<div style=""font-size:60px;"">+</div>","null","","","","","","",""
"","1458","image-keyboard-response","70","2.0.0","99897","pvxlvt7jqr5","bigger","hyena"," changing the size of images from its actual size in real life to see if people would notice","Yes, it was minor. I think the instructions stated to press N for the image but when I pressed N it did nothing, but after a couple trials I learned I had to press M","stimuli/19-Inongruent.jpg","m","","","","","right","m","true"
"","null","html-keyboard-response","71","2.0.0","100810","pvxlvt7jqr5","bigger","hyena"," changing the size of images from its actual size in real life to see if people would notice","Yes, it was minor. I think the instructions stated to press N for the image but when I pressed N it did nothing, but after a couple trials I learned I had to press M","<p>Correct!</p>","null","","","","","","",""
"","null","html-keyboard-response","72","2.0.0","101817","pvxlvt7jqr5","bigger","hyena"," changing the size of images from its actual size in real life to see if people would notice","Yes, it was minor. I think the instructions stated to press N for the image but when I pressed N it did nothing, but after a couple trials I learned I had to press M","<div style=""font-size:60px;"">+</div>","null","","","","","","",""
"","1509","image-keyboard-response","73","2.0.0","103334","pvxlvt7jqr5","bigger","hyena"," changing the size of images from its actual size in real life to see if people would notice","Yes, it was minor. I think the instructions stated to press N for the image but when I pressed N it did nothing, but after a couple trials I learned I had to press M","stimuli/26-Congruent.jpg","z","","","","","left","z","true"
"","null","html-keyboard-response","74","2.0.0","104243","pvxlvt7jqr5","bigger","hyena"," changing the size of images from its actual size in real life to see if people would notice","Yes, it was minor. I think the instructions stated to press N for the image but when I pressed N it did nothing, but after a couple trials I learned I had to press M","<p>Correct!</p>","null","","","","","","",""
"","null","html-keyboard-response","75","2.0.0","105257","pvxlvt7jqr5","bigger","hyena"," changing the size of images from its actual size in real life to see if people would notice","Yes, it was minor. I think the instructions stated to press N for the image but when I pressed N it did nothing, but after a couple trials I learned I had to press M","<div style=""font-size:60px;"">+</div>","null","","","","","","",""
"","1712","image-keyboard-response","76","2.0.0","106978","pvxlvt7jqr5","bigger","hyena"," changing the size of images from its actual size in real life to see if people would notice","Yes, it was minor. I think the instructions stated to press N for the image but when I pressed N it did nothing, but after a couple trials I learned I had to press M","stimuli/28-Inongruent.jpg","m","","","","","right","m","true"
"","null","html-keyboard-response","77","2.0.0","107886","pvxlvt7jqr5","bigger","hyena"," changing the size of images from its actual size in real life to see if people would notice","Yes, it was minor. I think the instructions stated to press N for the image but when I pressed N it did nothing, but after a couple trials I learned I had to press M","<p>Correct!</p>","null","","","","","","",""
"","null","html-keyboard-response","78","2.0.0","108892","pvxlvt7jqr5","bigger","hyena"," changing the size of images from its actual size in real life to see if people would notice","Yes, it was minor. I think the instructions stated to press N for the image but when I pressed N it did nothing, but after a couple trials I learned I had to press M","<div style=""font-size:60px;"">+</div>","null","","","","","","",""
"","3250","image-keyboard-response","79","2.0.0","112153","pvxlvt7jqr5","bigger","hyena"," changing the size of images from its actual size in real life to see if people would notice","Yes, it was minor. I think the instructions stated to press N for the image but when I pressed N it did nothing, but after a couple trials I learned I had to press M","stimuli/2-Inongruent.jpg","m","","","","","right","m","true"
"","null","html-keyboard-response","80","2.0.0","113068","pvxlvt7jqr5","bigger","hyena"," changing the size of images from its actual size in real life to see if people would notice","Yes, it was minor. I think the instructions stated to press N for the image but when I pressed N it did nothing, but after a couple trials I learned I had to press M","<p>Correct!</p>","null","","","","","","",""
"","null","html-keyboard-response","81","2.0.0","114077","pvxlvt7jqr5","bigger","hyena"," changing the size of images from its actual size in real life to see if people would notice","Yes, it was minor. I think the instructions stated to press N for the image but when I pressed N it did nothing, but after a couple trials I learned I had to press M","<div style=""font-size:60px;"">+</div>","null","","","","","","",""
"","1008","image-keyboard-response","82","2.0.0","115091","pvxlvt7jqr5","bigger","hyena"," changing the size of images from its actual size in real life to see if people would notice","Yes, it was minor. I think the instructions stated to press N for the image but when I pressed N it did nothing, but after a couple trials I learned I had to press M","stimuli/14-Inongruent.jpg","m","","","","","right","m","true"
"","null","html-keyboard-response","83","2.0.0","116000","pvxlvt7jqr5","bigger","hyena"," changing the size of images from its actual size in real life to see if people would notice","Yes, it was minor. I think the instructions stated to press N for the image but when I pressed N it did nothing, but after a couple trials I learned I had to press M","<p>Correct!</p>","null","","","","","","",""
"","null","html-keyboard-response","84","2.0.0","117011","pvxlvt7jqr5","bigger","hyena"," changing the size of images from its actual size in real life to see if people would notice","Yes, it was minor. I think the instructions stated to press N for the image but when I pressed N it did nothing, but after a couple trials I learned I had to press M","<div style=""font-size:60px;"">+</div>","null","","","","","","",""
"","1152","image-keyboard-response","85","2.0.0","118172","pvxlvt7jqr5","bigger","hyena"," changing the size of images from its actual size in real life to see if people would notice","Yes, it was minor. I think the instructions stated to press N for the image but when I pressed N it did nothing, but after a couple trials I learned I had to press M","stimuli/11-Congruent.jpg","z","","","","","left","z","true"
"","null","html-keyboard-response","86","2.0.0","119085","pvxlvt7jqr5","bigger","hyena"," changing the size of images from its actual size in real life to see if people would notice","Yes, it was minor. I think the instructions stated to press N for the image but when I pressed N it did nothing, but after a couple trials I learned I had to press M","<p>Correct!</p>","null","","","","","","",""
"","null","html-keyboard-response","87","2.0.0","120103","pvxlvt7jqr5","bigger","hyena"," changing the size of images from its actual size in real life to see if people would notice","Yes, it was minor. I think the instructions stated to press N for the image but when I pressed N it did nothing, but after a couple trials I learned I had to press M","<div style=""font-size:60px;"">+</div>","null","","","","","","",""
"","1080","image-keyboard-response","88","2.0.0","121194","pvxlvt7jqr5","bigger","hyena"," changing the size of images from its actual size in real life to see if people would notice","Yes, it was minor. I think the instructions stated to press N for the image but when I pressed N it did nothing, but after a couple trials I learned I had to press M","stimuli/30-Congruent.jpg","z","","","","","left","z","true"
"","null","html-keyboard-response","89","2.0.0","122099","pvxlvt7jqr5","bigger","hyena"," changing the size of images from its actual size in real life to see if people would notice","Yes, it was minor. I think the instructions stated to press N for the image but when I pressed N it did nothing, but after a couple trials I learned I had to press M","<p>Correct!</p>","null","","","","","","",""
"","null","html-keyboard-response","90","2.0.0","123107","pvxlvt7jqr5","bigger","hyena"," changing the size of images from its actual size in real life to see if people would notice","Yes, it was minor. I think the instructions stated to press N for the image but when I pressed N it did nothing, but after a couple trials I learned I had to press M","<div style=""font-size:60px;"">+</div>","null","","","","","","",""
"","2853","image-keyboard-response","91","2.0.0","125968","pvxlvt7jqr5","bigger","hyena"," changing the size of images from its actual size in real life to see if people would notice","Yes, it was minor. I think the instructions stated to press N for the image but when I pressed N it did nothing, but after a couple trials I learned I had to press M","stimuli/7-Congruent.jpg","z","","","","","left","z","true"
"","null","html-keyboard-response","92","2.0.0","126871","pvxlvt7jqr5","bigger","hyena"," changing the size of images from its actual size in real life to see if people would notice","Yes, it was minor. I think the instructions stated to press N for the image but when I pressed N it did nothing, but after a couple trials I learned I had to press M","<p>Correct!</p>","null","","","","","","",""
"","null","html-keyboard-response","93","2.0.0","127888","pvxlvt7jqr5","bigger","hyena"," changing the size of images from its actual size in real life to see if people would notice","Yes, it was minor. I think the instructions stated to press N for the image but when I pressed N it did nothing, but after a couple trials I learned I had to press M","<div style=""font-size:60px;"">+</div>","null","","","","","","",""
"","1189","image-keyboard-response","94","2.0.0","129085","pvxlvt7jqr5","bigger","hyena"," changing the size of images from its actual size in real life to see if people would notice","Yes, it was minor. I think the instructions stated to press N for the image but when I pressed N it did nothing, but after a couple trials I learned I had to press M","stimuli/32-Inongruent.jpg","m","","","","","right","m","true"
"","null","html-keyboard-response","95","2.0.0","129994","pvxlvt7jqr5","bigger","hyena"," changing the size of images from its actual size in real life to see if people would notice","Yes, it was minor. I think the instructions stated to press N for the image but when I pressed N it did nothing, but after a couple trials I learned I had to press M","<p>Correct!</p>","null","","","","","","",""
"","null","html-keyboard-response","96","2.0.0","131010","pvxlvt7jqr5","bigger","hyena"," changing the size of images from its actual size in real life to see if people would notice","Yes, it was minor. I think the instructions stated to press N for the image but when I pressed N it did nothing, but after a couple trials I learned I had to press M","<div style=""font-size:60px;"">+</div>","null","","","","","","",""
"","1352","image-keyboard-response","97","2.0.0","132373","pvxlvt7jqr5","bigger","hyena"," changing the size of images from its actual size in real life to see if people would notice","Yes, it was minor. I think the instructions stated to press N for the image but when I pressed N it did nothing, but after a couple trials I learned I had to press M","stimuli/10-Inongruent.jpg","m","","","","","right","m","true"
"","null","html-keyboard-response","98","2.0.0","133287","pvxlvt7jqr5","bigger","hyena"," changing the size of images from its actual size in real life to see if people would notice","Yes, it was minor. I think the instructions stated to press N for the image but when I pressed N it did nothing, but after a couple trials I learned I had to press M","<p>Correct!</p>","null","","","","","","",""
"","null","html-keyboard-response","99","2.0.0","134294","pvxlvt7jqr5","bigger","hyena"," changing the size of images from its actual size in real life to see if people would notice","Yes, it was minor. I think the instructions stated to press N for the image but when I pressed N it did nothing, but after a couple trials I learned I had to press M","<div style=""font-size:60px;"">+</div>","null","","","","","","",""
"","2399","image-keyboard-response","100","2.0.0","136702","pvxlvt7jqr5","bigger","hyena"," changing the size of images from its actual size in real life to see if people would notice","Yes, it was minor. I think the instructions stated to press N for the image but when I pressed N it did nothing, but after a couple trials I learned I had to press M","stimuli/31-Inongruent.jpg","m","","","","","right","m","true"
"","null","html-keyboard-response","101","2.0.0","137619","pvxlvt7jqr5","bigger","hyena"," changing the size of images from its actual size in real life to see if people would notice","Yes, it was minor. I think the instructions stated to press N for the image but when I pressed N it did nothing, but after a couple trials I learned I had to press M","<p>Correct!</p>","null","","","","","","",""
"","null","html-keyboard-response","102","2.0.0","138621","pvxlvt7jqr5","bigger","hyena"," changing the size of images from its actual size in real life to see if people would notice","Yes, it was minor. I think the instructions stated to press N for the image but when I pressed N it did nothing, but after a couple trials I learned I had to press M","<div style=""font-size:60px;"">+</div>","null","","","","","","",""
"","1006","image-keyboard-response","103","2.0.0","139637","pvxlvt7jqr5","bigger","hyena"," changing the size of images from its actual size in real life to see if people would notice","Yes, it was minor. I think the instructions stated to press N for the image but when I pressed N it did nothing, but after a couple trials I learned I had to press M","stimuli/21-Congruent.jpg","z","","","","","left","z","true"
"","null","html-keyboard-response","104","2.0.0","140546","pvxlvt7jqr5","bigger","hyena"," changing the size of images from its actual size in real life to see if people would notice","Yes, it was minor. I think the instructions stated to press N for the image but when I pressed N it did nothing, but after a couple trials I learned I had to press M","<p>Correct!</p>","null","","","","","","",""
"","null","html-keyboard-response","105","2.0.0","141557","pvxlvt7jqr5","bigger","hyena"," changing the size of images from its actual size in real life to see if people would notice","Yes, it was minor. I think the instructions stated to press N for the image but when I pressed N it did nothing, but after a couple trials I learned I had to press M","<div style=""font-size:60px;"">+</div>","null","","","","","","",""
"","1088","image-keyboard-response","106","2.0.0","142656","pvxlvt7jqr5","bigger","hyena"," changing the size of images from its actual size in real life to see if people would notice","Yes, it was minor. I think the instructions stated to press N for the image but when I pressed N it did nothing, but after a couple trials I learned I had to press M","stimuli/1-Inongruent.jpg","m","","","","","right","m","true"
"","null","html-keyboard-response","107","2.0.0","143574","pvxlvt7jqr5","bigger","hyena"," changing the size of images from its actual size in real life to see if people would notice","Yes, it was minor. I think the instructions stated to press N for the image but when I pressed N it did nothing, but after a couple trials I learned I had to press M","<p>Correct!</p>","null","","","","","","",""
"","null","html-keyboard-response","108","2.0.0","144577","pvxlvt7jqr5","bigger","hyena"," changing the size of images from its actual size in real life to see if people would notice","Yes, it was minor. I think the instructions stated to press N for the image but when I pressed N it did nothing, but after a couple trials I learned I had to press M","<div style=""font-size:60px;"">+</div>","null","","","","","","",""
"","994","image-keyboard-response","109","2.0.0","145580","pvxlvt7jqr5","bigger","hyena"," changing the size of images from its actual size in real life to see if people would notice","Yes, it was minor. I think the instructions stated to press N for the image but when I pressed N it did nothing, but after a couple trials I learned I had to press M","stimuli/21-Inongruent.jpg","m","","","","","right","m","true"
"","null","html-keyboard-response","110","2.0.0","146484","pvxlvt7jqr5","bigger","hyena"," changing the size of images from its actual size in real life to see if people would notice","Yes, it was minor. I think the instructions stated to press N for the image but when I pressed N it did nothing, but after a couple trials I learned I had to press M","<p>Correct!</p>","null","","","","","","",""
"","null","html-keyboard-response","111","2.0.0","147488","pvxlvt7jqr5","bigger","hyena"," changing the size of images from its actual size in real life to see if people would notice","Yes, it was minor. I think the instructions stated to press N for the image but when I pressed N it did nothing, but after a couple trials I learned I had to press M","<div style=""font-size:60px;"">+</div>","null","","","","","","",""
"","1338","image-keyboard-response","112","2.0.0","148834","pvxlvt7jqr5","bigger","hyena"," changing the size of images from its actual size in real life to see if people would notice","Yes, it was minor. I think the instructions stated to press N for the image but when I pressed N it did nothing, but after a couple trials I learned I had to press M","stimuli/19-Inongruent.jpg","m","","","","","right","m","true"
"","null","html-keyboard-response","113","2.0.0","149744","pvxlvt7jqr5","bigger","hyena"," changing the size of images from its actual size in real life to see if people would notice","Yes, it was minor. I think the instructions stated to press N for the image but when I pressed N it did nothing, but after a couple trials I learned I had to press M","<p>Correct!</p>","null","","","","","","",""
"","null","html-keyboard-response","114","2.0.0","150747","pvxlvt7jqr5","bigger","hyena"," changing the size of images from its actual size in real life to see if people would notice","Yes, it was minor. I think the instructions stated to press N for the image but when I pressed N it did nothing, but after a couple trials I learned I had to press M","<div style=""font-size:60px;"">+</div>","null","","","","","","",""
"","977","image-keyboard-response","115","2.0.0","151730","pvxlvt7jqr5","bigger","hyena"," changing the size of images from its actual size in real life to see if people would notice","Yes, it was minor. I think the instructions stated to press N for the image but when I pressed N it did nothing, but after a couple trials I learned I had to press M","stimuli/23-Congruent.jpg","z","","","","","left","z","true"
"","null","html-keyboard-response","116","2.0.0","152649","pvxlvt7jqr5","bigger","hyena"," changing the size of images from its actual size in real life to see if people would notice","Yes, it was minor. I think the instructions stated to press N for the image but when I pressed N it did nothing, but after a couple trials I learned I had to press M","<p>Correct!</p>","null","","","","","","",""
"","null","html-keyboard-response","117","2.0.0","153664","pvxlvt7jqr5","bigger","hyena"," changing the size of images from its actual size in real life to see if people would notice","Yes, it was minor. I think the instructions stated to press N for the image but when I pressed N it did nothing, but after a couple trials I learned I had to press M","<div style=""font-size:60px;"">+</div>","null","","","","","","",""
"","943","image-keyboard-response","118","2.0.0","154611","pvxlvt7jqr5","bigger","hyena"," changing the size of images from its actual size in real life to see if people would notice","Yes, it was minor. I think the instructions stated to press N for the image but when I pressed N it did nothing, but after a couple trials I learned I had to press M","stimuli/16-Inongruent.jpg","m","","","","","right","m","true"
"","null","html-keyboard-response","119","2.0.0","155518","pvxlvt7jqr5","bigger","hyena"," changing the size of images from its actual size in real life to see if people would notice","Yes, it was minor. I think the instructions stated to press N for the image but when I pressed N it did nothing, but after a couple trials I learned I had to press M","<p>Correct!</p>","null","","","","","","",""
"","null","html-keyboard-response","120","2.0.0","156521","pvxlvt7jqr5","bigger","hyena"," changing the size of images from its actual size in real life to see if people would notice","Yes, it was minor. I think the instructions stated to press N for the image but when I pressed N it did nothing, but after a couple trials I learned I had to press M","<div style=""font-size:60px;"">+</div>","null","","","","","","",""
"","796","image-keyboard-response","121","2.0.0","157328","pvxlvt7jqr5","bigger","hyena"," changing the size of images from its actual size in real life to see if people would notice","Yes, it was minor. I think the instructions stated to press N for the image but when I pressed N it did nothing, but after a couple trials I learned I had to press M","stimuli/12-Congruent.jpg","z","","","","","left","z","true"
"","null","html-keyboard-response","122","2.0.0","158241","pvxlvt7jqr5","bigger","hyena"," changing the size of images from its actual size in real life to see if people would notice","Yes, it was minor. I think the instructions stated to press N for the image but when I pressed N it did nothing, but after a couple trials I learned I had to press M","<p>Correct!</p>","null","","","","","","",""
"","null","html-keyboard-response","123","2.0.0","159247","pvxlvt7jqr5","bigger","hyena"," changing the size of images from its actual size in real life to see if people would notice","Yes, it was minor. I think the instructions stated to press N for the image but when I pressed N it did nothing, but after a couple trials I learned I had to press M","<div style=""font-size:60px;"">+</div>","null","","","","","","",""
"","996","image-keyboard-response","124","2.0.0","160255","pvxlvt7jqr5","bigger","hyena"," changing the size of images from its actual size in real life to see if people would notice","Yes, it was minor. I think the instructions stated to press N for the image but when I pressed N it did nothing, but after a couple trials I learned I had to press M","stimuli/15-Congruent.jpg","z","","","","","left","z","true"
"","null","html-keyboard-response","125","2.0.0","161164","pvxlvt7jqr5","bigger","hyena"," changing the size of images from its actual size in real life to see if people would notice","Yes, it was minor. I think the instructions stated to press N for the image but when I pressed N it did nothing, but after a couple trials I learned I had to press M","<p>Correct!</p>","null","","","","","","",""
"","null","html-keyboard-response","126","2.0.0","162179","pvxlvt7jqr5","bigger","hyena"," changing the size of images from its actual size in real life to see if people would notice","Yes, it was minor. I think the instructions stated to press N for the image but when I pressed N it did nothing, but after a couple trials I learned I had to press M","<div style=""font-size:60px;"">+</div>","null","","","","","","",""
"","867","image-keyboard-response","127","2.0.0","163055","pvxlvt7jqr5","bigger","hyena"," changing the size of images from its actual size in real life to see if people would notice","Yes, it was minor. I think the instructions stated to press N for the image but when I pressed N it did nothing, but after a couple trials I learned I had to press M","stimuli/18-Inongruent.jpg","m","","","","","right","m","true"
"","null","html-keyboard-response","128","2.0.0","163965","pvxlvt7jqr5","bigger","hyena"," changing the size of images from its actual size in real life to see if people would notice","Yes, it was minor. I think the instructions stated to press N for the image but when I pressed N it did nothing, but after a couple trials I learned I had to press M","<p>Correct!</p>","null","","","","","","",""
"","null","html-keyboard-response","129","2.0.0","164968","pvxlvt7jqr5","bigger","hyena"," changing the size of images from its actual size in real life to see if people would notice","Yes, it was minor. I think the instructions stated to press N for the image but when I pressed N it did nothing, but after a couple trials I learned I had to press M","<div style=""font-size:60px;"">+</div>","null","","","","","","",""
"","829","image-keyboard-response","130","2.0.0","165807","pvxlvt7jqr5","bigger","hyena"," changing the size of images from its actual size in real life to see if people would notice","Yes, it was minor. I think the instructions stated to press N for the image but when I pressed N it did nothing, but after a couple trials I learned I had to press M","stimuli/24-Congruent.jpg","z","","","","","left","z","true"
"","null","html-keyboard-response","131","2.0.0","166712","pvxlvt7jqr5","bigger","hyena"," changing the size of images from its actual size in real life to see if people would notice","Yes, it was minor. I think the instructions stated to press N for the image but when I pressed N it did nothing, but after a couple trials I learned I had to press M","<p>Correct!</p>","null","","","","","","",""
"","null","html-keyboard-response","132","2.0.0","167714","pvxlvt7jqr5","bigger","hyena"," changing the size of images from its actual size in real life to see if people would notice","Yes, it was minor. I think the instructions stated to press N for the image but when I pressed N it did nothing, but after a couple trials I learned I had to press M","<div style=""font-size:60px;"">+</div>","null","","","","","","",""
"","859","image-keyboard-response","133","2.0.0","168577","pvxlvt7jqr5","bigger","hyena"," changing the size of images from its actual size in real life to see if people would notice","Yes, it was minor. I think the instructions stated to press N for the image but when I pressed N it did nothing, but after a couple trials I learned I had to press M","stimuli/6-Congruent.jpg","z","","","","","left","z","true"
"","null","html-keyboard-response","134","2.0.0","169486","pvxlvt7jqr5","bigger","hyena"," changing the size of images from its actual size in real life to see if people would notice","Yes, it was minor. I think the instructions stated to press N for the image but when I pressed N it did nothing, but after a couple trials I learned I had to press M","<p>Correct!</p>","null","","","","","","",""
"","null","html-keyboard-response","135","2.0.0","170489","pvxlvt7jqr5","bigger","hyena"," changing the size of images from its actual size in real life to see if people would notice","Yes, it was minor. I think the instructions stated to press N for the image but when I pressed N it did nothing, but after a couple trials I learned I had to press M","<div style=""font-size:60px;"">+</div>","null","","","","","","",""
"","819","image-keyboard-response","136","2.0.0","171317","pvxlvt7jqr5","bigger","hyena"," changing the size of images from its actual size in real life to see if people would notice","Yes, it was minor. I think the instructions stated to press N for the image but when I pressed N it did nothing, but after a couple trials I learned I had to press M","stimuli/25-Congruent.jpg","z","","","","","left","z","true"
"","null","html-keyboard-response","137","2.0.0","172227","pvxlvt7jqr5","bigger","hyena"," changing the size of images from its actual size in real life to see if people would notice","Yes, it was minor. I think the instructions stated to press N for the image but when I pressed N it did nothing, but after a couple trials I learned I had to press M","<p>Correct!</p>","null","","","","","","",""
"","null","html-keyboard-response","138","2.0.0","173237","pvxlvt7jqr5","bigger","hyena"," changing the size of images from its actual size in real life to see if people would notice","Yes, it was minor. I think the instructions stated to press N for the image but when I pressed N it did nothing, but after a couple trials I learned I had to press M","<div style=""font-size:60px;"">+</div>","null","","","","","","",""
"","737","image-keyboard-response","139","2.0.0","173984","pvxlvt7jqr5","bigger","hyena"," changing the size of images from its actual size in real life to see if people would notice","Yes, it was minor. I think the instructions stated to press N for the image but when I pressed N it did nothing, but after a couple trials I learned I had to press M","stimuli/34-Congruent.jpg","z","","","","","left","z","true"
"","null","html-keyboard-response","140","2.0.0","174888","pvxlvt7jqr5","bigger","hyena"," changing the size of images from its actual size in real life to see if people would notice","Yes, it was minor. I think the instructions stated to press N for the image but when I pressed N it did nothing, but after a couple trials I learned I had to press M","<p>Correct!</p>","null","","","","","","",""
"","null","html-keyboard-response","141","2.0.0","175906","pvxlvt7jqr5","bigger","hyena"," changing the size of images from its actual size in real life to see if people would notice","Yes, it was minor. I think the instructions stated to press N for the image but when I pressed N it did nothing, but after a couple trials I learned I had to press M","<div style=""font-size:60px;"">+</div>","null","","","","","","",""
"","2829","image-keyboard-response","142","2.0.0","178744","pvxlvt7jqr5","bigger","hyena"," changing the size of images from its actual size in real life to see if people would notice","Yes, it was minor. I think the instructions stated to press N for the image but when I pressed N it did nothing, but after a couple trials I learned I had to press M","stimuli/8-Congruent.jpg","z","","","","","left","z","true"
"","null","html-keyboard-response","143","2.0.0","179657","pvxlvt7jqr5","bigger","hyena"," changing the size of images from its actual size in real life to see if people would notice","Yes, it was minor. I think the instructions stated to press N for the image but when I pressed N it did nothing, but after a couple trials I learned I had to press M","<p>Correct!</p>","null","","","","","","",""
"","null","html-keyboard-response","144","2.0.0","180663","pvxlvt7jqr5","bigger","hyena"," changing the size of images from its actual size in real life to see if people would notice","Yes, it was minor. I think the instructions stated to press N for the image but when I pressed N it did nothing, but after a couple trials I learned I had to press M","<div style=""font-size:60px;"">+</div>","null","","","","","","",""
"","729","image-keyboard-response","145","2.0.0","181398","pvxlvt7jqr5","bigger","hyena"," changing the size of images from its actual size in real life to see if people would notice","Yes, it was minor. I think the instructions stated to press N for the image but when I pressed N it did nothing, but after a couple trials I learned I had to press M","stimuli/32-Congruent.jpg","z","","","","","left","z","true"
"","null","html-keyboard-response","146","2.0.0","182309","pvxlvt7jqr5","bigger","hyena"," changing the size of images from its actual size in real life to see if people would notice","Yes, it was minor. I think the instructions stated to press N for the image but when I pressed N it did nothing, but after a couple trials I learned I had to press M","<p>Correct!</p>","null","","","","","","",""
"","null","html-keyboard-response","147","2.0.0","183324","pvxlvt7jqr5","bigger","hyena"," changing the size of images from its actual size in real life to see if people would notice","Yes, it was minor. I think the instructions stated to press N for the image but when I pressed N it did nothing, but after a couple trials I learned I had to press M","<div style=""font-size:60px;"">+</div>","null","","","","","","",""
"","875","image-keyboard-response","148","2.0.0","184204","pvxlvt7jqr5","bigger","hyena"," changing the size of images from its actual size in real life to see if people would notice","Yes, it was minor. I think the instructions stated to press N for the image but when I pressed N it did nothing, but after a couple trials I learned I had to press M","stimuli/22-Inongruent.jpg","m","","","","","right","m","true"
"","null","html-keyboard-response","149","2.0.0","185106","pvxlvt7jqr5","bigger","hyena"," changing the size of images from its actual size in real life to see if people would notice","Yes, it was minor. I think the instructions stated to press N for the image but when I pressed N it did nothing, but after a couple trials I learned I had to press M","<p>Correct!</p>","null","","","","","","",""
"","null","html-keyboard-response","150","2.0.0","186115","pvxlvt7jqr5","bigger","hyena"," changing the size of images from its actual size in real life to see if people would notice","Yes, it was minor. I think the instructions stated to press N for the image but when I pressed N it did nothing, but after a couple trials I learned I had to press M","<div style=""font-size:60px;"">+</div>","null","","","","","","",""
"","722","image-keyboard-response","151","2.0.0","186848","pvxlvt7jqr5","bigger","hyena"," changing the size of images from its actual size in real life to see if people would notice","Yes, it was minor. I think the instructions stated to press N for the image but when I pressed N it did nothing, but after a couple trials I learned I had to press M","stimuli/14-Congruent.jpg","z","","","","","left","z","true"
"","null","html-keyboard-response","152","2.0.0","187760","pvxlvt7jqr5","bigger","hyena"," changing the size of images from its actual size in real life to see if people would notice","Yes, it was minor. I think the instructions stated to press N for the image but when I pressed N it did nothing, but after a couple trials I learned I had to press M","<p>Correct!</p>","null","","","","","","",""
"","null","html-keyboard-response","153","2.0.0","188764","pvxlvt7jqr5","bigger","hyena"," changing the size of images from its actual size in real life to see if people would notice","Yes, it was minor. I think the instructions stated to press N for the image but when I pressed N it did nothing, but after a couple trials I learned I had to press M","<div style=""font-size:60px;"">+</div>","null","","","","","","",""
"","1611","image-keyboard-response","154","2.0.0","190381","pvxlvt7jqr5","bigger","hyena"," changing the size of images from its actual size in real life to see if people would notice","Yes, it was minor. I think the instructions stated to press N for the image but when I pressed N it did nothing, but after a couple trials I learned I had to press M","stimuli/33-Inongruent.jpg","m","","","","","right","m","true"
"","null","html-keyboard-response","155","2.0.0","191286","pvxlvt7jqr5","bigger","hyena"," changing the size of images from its actual size in real life to see if people would notice","Yes, it was minor. I think the instructions stated to press N for the image but when I pressed N it did nothing, but after a couple trials I learned I had to press M","<p>Correct!</p>","null","","","","","","",""
"","null","html-keyboard-response","156","2.0.0","192295","pvxlvt7jqr5","bigger","hyena"," changing the size of images from its actual size in real life to see if people would notice","Yes, it was minor. I think the instructions stated to press N for the image but when I pressed N it did nothing, but after a couple trials I learned I had to press M","<div style=""font-size:60px;"">+</div>","null","","","","","","",""
"","1215","image-keyboard-response","157","2.0.0","193518","pvxlvt7jqr5","bigger","hyena"," changing the size of images from its actual size in real life to see if people would notice","Yes, it was minor. I think the instructions stated to press N for the image but when I pressed N it did nothing, but after a couple trials I learned I had to press M","stimuli/17-Congruent.jpg","z","","","","","left","z","true"
"","null","html-keyboard-response","158","2.0.0","194425","pvxlvt7jqr5","bigger","hyena"," changing the size of images from its actual size in real life to see if people would notice","Yes, it was minor. I think the instructions stated to press N for the image but when I pressed N it did nothing, but after a couple trials I learned I had to press M","<p>Correct!</p>","null","","","","","","",""
"","null","html-keyboard-response","159","2.0.0","195431","pvxlvt7jqr5","bigger","hyena"," changing the size of images from its actual size in real life to see if people would notice","Yes, it was minor. I think the instructions stated to press N for the image but when I pressed N it did nothing, but after a couple trials I learned I had to press M","<div style=""font-size:60px;"">+</div>","null","","","","","","",""
"","1041","image-keyboard-response","160","2.0.0","196484","pvxlvt7jqr5","bigger","hyena"," changing the size of images from its actual size in real life to see if people would notice","Yes, it was minor. I think the instructions stated to press N for the image but when I pressed N it did nothing, but after a couple trials I learned I had to press M","stimuli/9-Congruent.jpg","z","","","","","left","z","true"
"","null","html-keyboard-response","161","2.0.0","197401","pvxlvt7jqr5","bigger","hyena"," changing the size of images from its actual size in real life to see if people would notice","Yes, it was minor. I think the instructions stated to press N for the image but when I pressed N it did nothing, but after a couple trials I learned I had to press M","<p>Correct!</p>","null","","","","","","",""
"","null","html-keyboard-response","162","2.0.0","198413","pvxlvt7jqr5","bigger","hyena"," changing the size of images from its actual size in real life to see if people would notice","Yes, it was minor. I think the instructions stated to press N for the image but when I pressed N it did nothing, but after a couple trials I learned I had to press M","<div style=""font-size:60px;"">+</div>","null","","","","","","",""
"","744","image-keyboard-response","163","2.0.0","199165","pvxlvt7jqr5","bigger","hyena"," changing the size of images from its actual size in real life to see if people would notice","Yes, it was minor. I think the instructions stated to press N for the image but when I pressed N it did nothing, but after a couple trials I learned I had to press M","stimuli/4-Congruent.jpg","z","","","","","left","z","true"
"","null","html-keyboard-response","164","2.0.0","200081","pvxlvt7jqr5","bigger","hyena"," changing the size of images from its actual size in real life to see if people would notice","Yes, it was minor. I think the instructions stated to press N for the image but when I pressed N it did nothing, but after a couple trials I learned I had to press M","<p>Correct!</p>","null","","","","","","",""
"","null","html-keyboard-response","165","2.0.0","201090","pvxlvt7jqr5","bigger","hyena"," changing the size of images from its actual size in real life to see if people would notice","Yes, it was minor. I think the instructions stated to press N for the image but when I pressed N it did nothing, but after a couple trials I learned I had to press M","<div style=""font-size:60px;"">+</div>","null","","","","","","",""
"","1308","image-keyboard-response","166","2.0.0","202407","pvxlvt7jqr5","bigger","hyena"," changing the size of images from its actual size in real life to see if people would notice","Yes, it was minor. I think the instructions stated to press N for the image but when I pressed N it did nothing, but after a couple trials I learned I had to press M","stimuli/1-Congruent.jpg","z","","","","","left","z","true"
"","null","html-keyboard-response","167","2.0.0","203312","pvxlvt7jqr5","bigger","hyena"," changing the size of images from its actual size in real life to see if people would notice","Yes, it was minor. I think the instructions stated to press N for the image but when I pressed N it did nothing, but after a couple trials I learned I had to press M","<p>Correct!</p>","null","","","","","","",""
"","null","html-keyboard-response","168","2.0.0","204319","pvxlvt7jqr5","bigger","hyena"," changing the size of images from its actual size in real life to see if people would notice","Yes, it was minor. I think the instructions stated to press N for the image but when I pressed N it did nothing, but after a couple trials I learned I had to press M","<div style=""font-size:60px;"">+</div>","null","","","","","","",""
"","3395","image-keyboard-response","169","2.0.0","207724","pvxlvt7jqr5","bigger","hyena"," changing the size of images from its actual size in real life to see if people would notice","Yes, it was minor. I think the instructions stated to press N for the image but when I pressed N it did nothing, but after a couple trials I learned I had to press M","stimuli/16-Inongruent.jpg","m","","","","","right","m","true"
"","null","html-keyboard-response","170","2.0.0","208639","pvxlvt7jqr5","bigger","hyena"," changing the size of images from its actual size in real life to see if people would notice","Yes, it was minor. I think the instructions stated to press N for the image but when I pressed N it did nothing, but after a couple trials I learned I had to press M","<p>Correct!</p>","null","","","","","","",""
"","null","html-keyboard-response","171","2.0.0","209658","pvxlvt7jqr5","bigger","hyena"," changing the size of images from its actual size in real life to see if people would notice","Yes, it was minor. I think the instructions stated to press N for the image but when I pressed N it did nothing, but after a couple trials I learned I had to press M","<div style=""font-size:60px;"">+</div>","null","","","","","","",""
"","5300","image-keyboard-response","172","2.0.0","214967","pvxlvt7jqr5","bigger","hyena"," changing the size of images from its actual size in real life to see if people would notice","Yes, it was minor. I think the instructions stated to press N for the image but when I pressed N it did nothing, but after a couple trials I learned I had to press M","stimuli/28-Congruent.jpg","z","","","","","left","z","true"
"","null","html-keyboard-response","173","2.0.0","215872","pvxlvt7jqr5","bigger","hyena"," changing the size of images from its actual size in real life to see if people would notice","Yes, it was minor. I think the instructions stated to press N for the image but when I pressed N it did nothing, but after a couple trials I learned I had to press M","<p>Correct!</p>","null","","","","","","",""
"","null","html-keyboard-response","174","2.0.0","216882","pvxlvt7jqr5","bigger","hyena"," changing the size of images from its actual size in real life to see if people would notice","Yes, it was minor. I think the instructions stated to press N for the image but when I pressed N it did nothing, but after a couple trials I learned I had to press M","<div style=""font-size:60px;"">+</div>","null","","","","","","",""
"","1313","image-keyboard-response","175","2.0.0","218203","pvxlvt7jqr5","bigger","hyena"," changing the size of images from its actual size in real life to see if people would notice","Yes, it was minor. I think the instructions stated to press N for the image but when I pressed N it did nothing, but after a couple trials I learned I had to press M","stimuli/9-Congruent.jpg","z","","","","","left","z","true"
"","null","html-keyboard-response","176","2.0.0","219109","pvxlvt7jqr5","bigger","hyena"," changing the size of images from its actual size in real life to see if people would notice","Yes, it was minor. I think the instructions stated to press N for the image but when I pressed N it did nothing, but after a couple trials I learned I had to press M","<p>Correct!</p>","null","","","","","","",""
"","null","html-keyboard-response","177","2.0.0","220125","pvxlvt7jqr5","bigger","hyena"," changing the size of images from its actual size in real life to see if people would notice","Yes, it was minor. I think the instructions stated to press N for the image but when I pressed N it did nothing, but after a couple trials I learned I had to press M","<div style=""font-size:60px;"">+</div>","null","","","","","","",""
"","1319","image-keyboard-response","178","2.0.0","221457","pvxlvt7jqr5","bigger","hyena"," changing the size of images from its actual size in real life to see if people would notice","Yes, it was minor. I think the instructions stated to press N for the image but when I pressed N it did nothing, but after a couple trials I learned I had to press M","stimuli/29-Congruent.jpg","z","","","","","left","z","true"
"","null","html-keyboard-response","179","2.0.0","222365","pvxlvt7jqr5","bigger","hyena"," changing the size of images from its actual size in real life to see if people would notice","Yes, it was minor. I think the instructions stated to press N for the image but when I pressed N it did nothing, but after a couple trials I learned I had to press M","<p>Correct!</p>","null","","","","","","",""
"","null","html-keyboard-response","180","2.0.0","223375","pvxlvt7jqr5","bigger","hyena"," changing the size of images from its actual size in real life to see if people would notice","Yes, it was minor. I think the instructions stated to press N for the image but when I pressed N it did nothing, but after a couple trials I learned I had to press M","<div style=""font-size:60px;"">+</div>","null","","","","","","",""
"","1274","image-keyboard-response","181","2.0.0","224658","pvxlvt7jqr5","bigger","hyena"," changing the size of images from its actual size in real life to see if people would notice","Yes, it was minor. I think the instructions stated to press N for the image but when I pressed N it did nothing, but after a couple trials I learned I had to press M","stimuli/22-Inongruent.jpg","m","","","","","right","m","true"
"","null","html-keyboard-response","182","2.0.0","225572","pvxlvt7jqr5","bigger","hyena"," changing the size of images from its actual size in real life to see if people would notice","Yes, it was minor. I think the instructions stated to press N for the image but when I pressed N it did nothing, but after a couple trials I learned I had to press M","<p>Correct!</p>","null","","","","","","",""
"","null","html-keyboard-response","183","2.0.0","226579","pvxlvt7jqr5","bigger","hyena"," changing the size of images from its actual size in real life to see if people would notice","Yes, it was minor. I think the instructions stated to press N for the image but when I pressed N it did nothing, but after a couple trials I learned I had to press M","<div style=""font-size:60px;"">+</div>","null","","","","","","",""
"","3018","image-keyboard-response","184","2.0.0","229619","pvxlvt7jqr5","bigger","hyena"," changing the size of images from its actual size in real life to see if people would notice","Yes, it was minor. I think the instructions stated to press N for the image but when I pressed N it did nothing, but after a couple trials I learned I had to press M","stimuli/35-Congruent.jpg","z","","","","","left","z","true"
"","null","html-keyboard-response","185","2.0.0","230530","pvxlvt7jqr5","bigger","hyena"," changing the size of images from its actual size in real life to see if people would notice","Yes, it was minor. I think the instructions stated to press N for the image but when I pressed N it did nothing, but after a couple trials I learned I had to press M","<p>Correct!</p>","null","","","","","","",""
"","null","html-keyboard-response","186","2.0.0","231547","pvxlvt7jqr5","bigger","hyena"," changing the size of images from its actual size in real life to see if people would notice","Yes, it was minor. I think the instructions stated to press N for the image but when I pressed N it did nothing, but after a couple trials I learned I had to press M","<div style=""font-size:60px;"">+</div>","null","","","","","","",""
"","1280","image-keyboard-response","187","2.0.0","232838","pvxlvt7jqr5","bigger","hyena"," changing the size of images from its actual size in real life to see if people would notice","Yes, it was minor. I think the instructions stated to press N for the image but when I pressed N it did nothing, but after a couple trials I learned I had to press M","stimuli/23-Inongruent.jpg","m","","","","","right","m","true"
"","null","html-keyboard-response","188","2.0.0","233741","pvxlvt7jqr5","bigger","hyena"," changing the size of images from its actual size in real life to see if people would notice","Yes, it was minor. I think the instructions stated to press N for the image but when I pressed N it did nothing, but after a couple trials I learned I had to press M","<p>Correct!</p>","null","","","","","","",""
"","null","html-keyboard-response","189","2.0.0","234745","pvxlvt7jqr5","bigger","hyena"," changing the size of images from its actual size in real life to see if people would notice","Yes, it was minor. I think the instructions stated to press N for the image but when I pressed N it did nothing, but after a couple trials I learned I had to press M","<div style=""font-size:60px;"">+</div>","null","","","","","","",""
"","1011","image-keyboard-response","190","2.0.0","235760","pvxlvt7jqr5","bigger","hyena"," changing the size of images from its actual size in real life to see if people would notice","Yes, it was minor. I think the instructions stated to press N for the image but when I pressed N it did nothing, but after a couple trials I learned I had to press M","stimuli/22-Congruent.jpg","z","","","","","left","z","true"
"","null","html-keyboard-response","191","2.0.0","236664","pvxlvt7jqr5","bigger","hyena"," changing the size of images from its actual size in real life to see if people would notice","Yes, it was minor. I think the instructions stated to press N for the image but when I pressed N it did nothing, but after a couple trials I learned I had to press M","<p>Correct!</p>","null","","","","","","",""
"","null","html-keyboard-response","192","2.0.0","237668","pvxlvt7jqr5","bigger","hyena"," changing the size of images from its actual size in real life to see if people would notice","Yes, it was minor. I think the instructions stated to press N for the image but when I pressed N it did nothing, but after a couple trials I learned I had to press M","<div style=""font-size:60px;"">+</div>","null","","","","","","",""
"","1250","image-keyboard-response","193","2.0.0","238928","pvxlvt7jqr5","bigger","hyena"," changing the size of images from its actual size in real life to see if people would notice","Yes, it was minor. I think the instructions stated to press N for the image but when I pressed N it did nothing, but after a couple trials I learned I had to press M","stimuli/13-Inongruent.jpg","m","","","","","right","m","true"
"","null","html-keyboard-response","194","2.0.0","239834","pvxlvt7jqr5","bigger","hyena"," changing the size of images from its actual size in real life to see if people would notice","Yes, it was minor. I think the instructions stated to press N for the image but when I pressed N it did nothing, but after a couple trials I learned I had to press M","<p>Correct!</p>","null","","","","","","",""
"","null","html-keyboard-response","195","2.0.0","240840","pvxlvt7jqr5","bigger","hyena"," changing the size of images from its actual size in real life to see if people would notice","Yes, it was minor. I think the instructions stated to press N for the image but when I pressed N it did nothing, but after a couple trials I learned I had to press M","<div style=""font-size:60px;"">+</div>","null","","","","","","",""
"","3745","image-keyboard-response","196","2.0.0","244596","pvxlvt7jqr5","bigger","hyena"," changing the size of images from its actual size in real life to see if people would notice","Yes, it was minor. I think the instructions stated to press N for the image but when I pressed N it did nothing, but after a couple trials I learned I had to press M","stimuli/24-Inongruent.jpg","m","","","","","right","m","true"
"","1","html-keyboard-response","197","2.0.0","244599","pvxlvt7jqr5","bigger","hyena"," changing the size of images from its actual size in real life to see if people would notice","Yes, it was minor. I think the instructions stated to press N for the image but when I pressed N it did nothing, but after a couple trials I learned I had to press M","<p>Correct!</p>"," ","","","","","","",""
"","null","html-keyboard-response","198","2.0.0","245607","pvxlvt7jqr5","bigger","hyena"," changing the size of images from its actual size in real life to see if people would notice","Yes, it was minor. I think the instructions stated to press N for the image but when I pressed N it did nothing, but after a couple trials I learned I had to press M","<div style=""font-size:60px;"">+</div>","null","","","","","","",""
"","1288","image-keyboard-response","199","2.0.0","246904","pvxlvt7jqr5","bigger","hyena"," changing the size of images from its actual size in real life to see if people would notice","Yes, it was minor. I think the instructions stated to press N for the image but when I pressed N it did nothing, but after a couple trials I learned I had to press M","stimuli/24-Congruent.jpg","z","","","","","left","z","true"
"","null","html-keyboard-response","200","2.0.0","247809","pvxlvt7jqr5","bigger","hyena"," changing the size of images from its actual size in real life to see if people would notice","Yes, it was minor. I think the instructions stated to press N for the image but when I pressed N it did nothing, but after a couple trials I learned I had to press M","<p>Correct!</p>","null","","","","","","",""
"","null","html-keyboard-response","201","2.0.0","248822","pvxlvt7jqr5","bigger","hyena"," changing the size of images from its actual size in real life to see if people would notice","Yes, it was minor. I think the instructions stated to press N for the image but when I pressed N it did nothing, but after a couple trials I learned I had to press M","<div style=""font-size:60px;"">+</div>","null","","","","","","",""
"","1956","image-keyboard-response","202","2.0.0","250785","pvxlvt7jqr5","bigger","hyena"," changing the size of images from its actual size in real life to see if people would notice","Yes, it was minor. I think the instructions stated to press N for the image but when I pressed N it did nothing, but after a couple trials I learned I had to press M","stimuli/4-Inongruent.jpg","m","","","","","right","m","true"
"","null","html-keyboard-response","203","2.0.0","251687","pvxlvt7jqr5","bigger","hyena"," changing the size of images from its actual size in real life to see if people would notice","Yes, it was minor. I think the instructions stated to press N for the image but when I pressed N it did nothing, but after a couple trials I learned I had to press M","<p>Correct!</p>","null","","","","","","",""
"","null","html-keyboard-response","204","2.0.0","252692","pvxlvt7jqr5","bigger","hyena"," changing the size of images from its actual size in real life to see if people would notice","Yes, it was minor. I think the instructions stated to press N for the image but when I pressed N it did nothing, but after a couple trials I learned I had to press M","<div style=""font-size:60px;"">+</div>","null","","","","","","",""
"","1537","image-keyboard-response","205","2.0.0","254239","pvxlvt7jqr5","bigger","hyena"," changing the size of images from its actual size in real life to see if people would notice","Yes, it was minor. I think the instructions stated to press N for the image but when I pressed N it did nothing, but after a couple trials I learned I had to press M","stimuli/5-Inongruent.jpg","m","","","","","right","m","true"
"","null","html-keyboard-response","206","2.0.0","255151","pvxlvt7jqr5","bigger","hyena"," changing the size of images from its actual size in real life to see if people would notice","Yes, it was minor. I think the instructions stated to press N for the image but when I pressed N it did nothing, but after a couple trials I learned I had to press M","<p>Correct!</p>","null","","","","","","",""
"","null","html-keyboard-response","207","2.0.0","256166","pvxlvt7jqr5","bigger","hyena"," changing the size of images from its actual size in real life to see if people would notice","Yes, it was minor. I think the instructions stated to press N for the image but when I pressed N it did nothing, but after a couple trials I learned I had to press M","<div style=""font-size:60px;"">+</div>","null","","","","","","",""
"","1438","image-keyboard-response","208","2.0.0","257613","pvxlvt7jqr5","bigger","hyena"," changing the size of images from its actual size in real life to see if people would notice","Yes, it was minor. I think the instructions stated to press N for the image but when I pressed N it did nothing, but after a couple trials I learned I had to press M","stimuli/35-Congruent.jpg","z","","","","","left","z","true"
"","null","html-keyboard-response","209","2.0.0","258525","pvxlvt7jqr5","bigger","hyena"," changing the size of images from its actual size in real life to see if people would notice","Yes, it was minor. I think the instructions stated to press N for the image but when I pressed N it did nothing, but after a couple trials I learned I had to press M","<p>Correct!</p>","null","","","","","","",""
"","null","html-keyboard-response","210","2.0.0","259538","pvxlvt7jqr5","bigger","hyena"," changing the size of images from its actual size in real life to see if people would notice","Yes, it was minor. I think the instructions stated to press N for the image but when I pressed N it did nothing, but after a couple trials I learned I had to press M","<div style=""font-size:60px;"">+</div>","null","","","","","","",""
"","1062","image-keyboard-response","211","2.0.0","260608","pvxlvt7jqr5","bigger","hyena"," changing the size of images from its actual size in real life to see if people would notice","Yes, it was minor. I think the instructions stated to press N for the image but when I pressed N it did nothing, but after a couple trials I learned I had to press M","stimuli/10-Congruent.jpg","z","","","","","left","z","true"
"","null","html-keyboard-response","212","2.0.0","261520","pvxlvt7jqr5","bigger","hyena"," changing the size of images from its actual size in real life to see if people would notice","Yes, it was minor. I think the instructions stated to press N for the image but when I pressed N it did nothing, but after a couple trials I learned I had to press M","<p>Correct!</p>","null","","","","","","",""
"","null","html-keyboard-response","213","2.0.0","262526","pvxlvt7jqr5","bigger","hyena"," changing the size of images from its actual size in real life to see if people would notice","Yes, it was minor. I think the instructions stated to press N for the image but when I pressed N it did nothing, but after a couple trials I learned I had to press M","<div style=""font-size:60px;"">+</div>","null","","","","","","",""
"","1441","image-keyboard-response","214","2.0.0","263979","pvxlvt7jqr5","bigger","hyena"," changing the size of images from its actual size in real life to see if people would notice","Yes, it was minor. I think the instructions stated to press N for the image but when I pressed N it did nothing, but after a couple trials I learned I had to press M","stimuli/34-Congruent.jpg","z","","","","","left","z","true"
"","null","html-keyboard-response","215","2.0.0","264886","pvxlvt7jqr5","bigger","hyena"," changing the size of images from its actual size in real life to see if people would notice","Yes, it was minor. I think the instructions stated to press N for the image but when I pressed N it did nothing, but after a couple trials I learned I had to press M","<p>Correct!</p>","null","","","","","","",""
"","null","html-keyboard-response","216","2.0.0","265895","pvxlvt7jqr5","bigger","hyena"," changing the size of images from its actual size in real life to see if people would notice","Yes, it was minor. I think the instructions stated to press N for the image but when I pressed N it did nothing, but after a couple trials I learned I had to press M","<div style=""font-size:60px;"">+</div>","null","","","","","","",""
"","1680","image-keyboard-response","217","2.0.0","267583","pvxlvt7jqr5","bigger","hyena"," changing the size of images from its actual size in real life to see if people would notice","Yes, it was minor. I think the instructions stated to press N for the image but when I pressed N it did nothing, but after a couple trials I learned I had to press M","stimuli/30-Inongruent.jpg","m","","","","","right","m","true"
"","null","html-keyboard-response","218","2.0.0","268494","pvxlvt7jqr5","bigger","hyena"," changing the size of images from its actual size in real life to see if people would notice","Yes, it was minor. I think the instructions stated to press N for the image but when I pressed N it did nothing, but after a couple trials I learned I had to press M","<p>Correct!</p>","null","","","","","","",""
"","null","html-keyboard-response","219","2.0.0","269506","pvxlvt7jqr5","bigger","hyena"," changing the size of images from its actual size in real life to see if people would notice","Yes, it was minor. I think the instructions stated to press N for the image but when I pressed N it did nothing, but after a couple trials I learned I had to press M","<div style=""font-size:60px;"">+</div>","null","","","","","","",""
"","2114","image-keyboard-response","220","2.0.0","271629","pvxlvt7jqr5","bigger","hyena"," changing the size of images from its actual size in real life to see if people would notice","Yes, it was minor. I think the instructions stated to press N for the image but when I pressed N it did nothing, but after a couple trials I learned I had to press M","stimuli/26-Inongruent.jpg","m","","","","","right","m","true"
"","null","html-keyboard-response","221","2.0.0","272549","pvxlvt7jqr5","bigger","hyena"," changing the size of images from its actual size in real life to see if people would notice","Yes, it was minor. I think the instructions stated to press N for the image but when I pressed N it did nothing, but after a couple trials I learned I had to press M","<p>Correct!</p>","null","","","","","","",""
"","null","html-keyboard-response","222","2.0.0","273566","pvxlvt7jqr5","bigger","hyena"," changing the size of images from its actual size in real life to see if people would notice","Yes, it was minor. I think the instructions stated to press N for the image but when I pressed N it did nothing, but after a couple trials I learned I had to press M","<div style=""font-size:60px;"">+</div>","null","","","","","","",""
"","1357","image-keyboard-response","223","2.0.0","274934","pvxlvt7jqr5","bigger","hyena"," changing the size of images from its actual size in real life to see if people would notice","Yes, it was minor. I think the instructions stated to press N for the image but when I pressed N it did nothing, but after a couple trials I learned I had to press M","stimuli/33-Inongruent.jpg","m","","","","","right","m","true"
"","null","html-keyboard-response","224","2.0.0","275846","pvxlvt7jqr5","bigger","hyena"," changing the size of images from its actual size in real life to see if people would notice","Yes, it was minor. I think the instructions stated to press N for the image but when I pressed N it did nothing, but after a couple trials I learned I had to press M","<p>Correct!</p>","null","","","","","","",""
"","null","html-keyboard-response","225","2.0.0","276853","pvxlvt7jqr5","bigger","hyena"," changing the size of images from its actual size in real life to see if people would notice","Yes, it was minor. I think the instructions stated to press N for the image but when I pressed N it did nothing, but after a couple trials I learned I had to press M","<div style=""font-size:60px;"">+</div>","null","","","","","","",""
"","1127","image-keyboard-response","226","2.0.0","277988","pvxlvt7jqr5","bigger","hyena"," changing the size of images from its actual size in real life to see if people would notice","Yes, it was minor. I think the instructions stated to press N for the image but when I pressed N it did nothing, but after a couple trials I learned I had to press M","stimuli/13-Congruent.jpg","z","","","","","left","z","true"
"","null","html-keyboard-response","227","2.0.0","278894","pvxlvt7jqr5","bigger","hyena"," changing the size of images from its actual size in real life to see if people would notice","Yes, it was minor. I think the instructions stated to press N for the image but when I pressed N it did nothing, but after a couple trials I learned I had to press M","<p>Correct!</p>","null","","","","","","",""
"","null","html-keyboard-response","228","2.0.0","279901","pvxlvt7jqr5","bigger","hyena"," changing the size of images from its actual size in real life to see if people would notice","Yes, it was minor. I think the instructions stated to press N for the image but when I pressed N it did nothing, but after a couple trials I learned I had to press M","<div style=""font-size:60px;"">+</div>","null","","","","","","",""
"","1123","image-keyboard-response","229","2.0.0","281032","pvxlvt7jqr5","bigger","hyena"," changing the size of images from its actual size in real life to see if people would notice","Yes, it was minor. I think the instructions stated to press N for the image but when I pressed N it did nothing, but after a couple trials I learned I had to press M","stimuli/19-Congruent.jpg","z","","","","","left","z","true"
"","null","html-keyboard-response","230","2.0.0","281941","pvxlvt7jqr5","bigger","hyena"," changing the size of images from its actual size in real life to see if people would notice","Yes, it was minor. I think the instructions stated to press N for the image but when I pressed N it did nothing, but after a couple trials I learned I had to press M","<p>Correct!</p>","null","","","","","","",""
"","null","html-keyboard-response","231","2.0.0","282949","pvxlvt7jqr5","bigger","hyena"," changing the size of images from its actual size in real life to see if people would notice","Yes, it was minor. I think the instructions stated to press N for the image but when I pressed N it did nothing, but after a couple trials I learned I had to press M","<div style=""font-size:60px;"">+</div>","null","","","","","","",""
"","926","image-keyboard-response","232","2.0.0","283884","pvxlvt7jqr5","bigger","hyena"," changing the size of images from its actual size in real life to see if people would notice","Yes, it was minor. I think the instructions stated to press N for the image but when I pressed N it did nothing, but after a couple trials I learned I had to press M","stimuli/3-Inongruent.jpg","m","","","","","right","m","true"
"","null","html-keyboard-response","233","2.0.0","284792","pvxlvt7jqr5","bigger","hyena"," changing the size of images from its actual size in real life to see if people would notice","Yes, it was minor. I think the instructions stated to press N for the image but when I pressed N it did nothing, but after a couple trials I learned I had to press M","<p>Correct!</p>","null","","","","","","",""
"","null","html-keyboard-response","234","2.0.0","285795","pvxlvt7jqr5","bigger","hyena"," changing the size of images from its actual size in real life to see if people would notice","Yes, it was minor. I think the instructions stated to press N for the image but when I pressed N it did nothing, but after a couple trials I learned I had to press M","<div style=""font-size:60px;"">+</div>","null","","","","","","",""
"","1178","image-keyboard-response","235","2.0.0","286980","pvxlvt7jqr5","bigger","hyena"," changing the size of images from its actual size in real life to see if people would notice","Yes, it was minor. I think the instructions stated to press N for the image but when I pressed N it did nothing, but after a couple trials I learned I had to press M","stimuli/29-Inongruent.jpg","m","","","","","right","m","true"
"","null","html-keyboard-response","236","2.0.0","287882","pvxlvt7jqr5","bigger","hyena"," changing the size of images from its actual size in real life to see if people would notice","Yes, it was minor. I think the instructions stated to press N for the image but when I pressed N it did nothing, but after a couple trials I learned I had to press M","<p>Correct!</p>","null","","","","","","",""
"","null","html-keyboard-response","237","2.0.0","288896","pvxlvt7jqr5","bigger","hyena"," changing the size of images from its actual size in real life to see if people would notice","Yes, it was minor. I think the instructions stated to press N for the image but when I pressed N it did nothing, but after a couple trials I learned I had to press M","<div style=""font-size:60px;"">+</div>","null","","","","","","",""
"","1089","image-keyboard-response","238","2.0.0","289990","pvxlvt7jqr5","bigger","hyena"," changing the size of images from its actual size in real life to see if people would notice","Yes, it was minor. I think the instructions stated to press N for the image but when I pressed N it did nothing, but after a couple trials I learned I had to press M","stimuli/13-Inongruent.jpg","m","","","","","right","m","true"
"","null","html-keyboard-response","239","2.0.0","290900","pvxlvt7jqr5","bigger","hyena"," changing the size of images from its actual size in real life to see if people would notice","Yes, it was minor. I think the instructions stated to press N for the image but when I pressed N it did nothing, but after a couple trials I learned I had to press M","<p>Correct!</p>","null","","","","","","",""
"","null","html-keyboard-response","240","2.0.0","291904","pvxlvt7jqr5","bigger","hyena"," changing the size of images from its actual size in real life to see if people would notice","Yes, it was minor. I think the instructions stated to press N for the image but when I pressed N it did nothing, but after a couple trials I learned I had to press M","<div style=""font-size:60px;"">+</div>","null","","","","","","",""
