"success","rt","trial_type","trial_index","plugin_version","time_elapsed","random_id","condition","participant","participant_thoughts","participant_difficulties","stimulus","response","timeout","failed_images","failed_audio","failed_video","correct_response","correct_response_key","correct"
"true","3348","fullscreen","0","null","4352","pwcpfs7mks5","smaller","lion","How the actual size of an item in real life and the size of an image of it can affect our perception","Yes, at some time during the experiment, I accidentally pressed the caps lock key so my answered for a chunk of the trials were all wrong. Sorry for the mistake!","","","","","","","","",""
"","2685","html-keyboard-response","1","2.0.0","7039","pwcpfs7mks5","smaller","lion","How the actual size of an item in real life and the size of an image of it can affect our perception","Yes, at some time during the experiment, I accidentally pressed the caps lock key so my answered for a chunk of the trials were all wrong. Sorry for the mistake!","Welcome to the Size Stroop experiment. Press any key to begin."," ","","","","","","",""
"","null","html-keyboard-response","2","2.0.0","8041","pwcpfs7mks5","smaller","lion","How the actual size of an item in real life and the size of an image of it can affect our perception","Yes, at some time during the experiment, I accidentally pressed the caps lock key so my answered for a chunk of the trials were all wrong. Sorry for the mistake!","This trial will be in fullscreen mode.","null","","","","","","",""
"","2740","survey-text","3","2.0.0","10788","pwcpfs7mks5","smaller","lion","How the actual size of an item in real life and the size of an image of it can affect our perception","Yes, at some time during the experiment, I accidentally pressed the caps lock key so my answered for a chunk of the trials were all wrong. Sorry for the mistake!","","{""participant_id"":""lion""}","","","","","","",""
"","11198","html-keyboard-response","4","2.0.0","21986","pwcpfs7mks5","smaller","lion","How the actual size of an item in real life and the size of an image of it can affect our perception","Yes, at some time during the experiment, I accidentally pressed the caps lock key so my answered for a chunk of the trials were all wrong. Sorry for the mistake!","<p>In this experiment, two images will appear on the screen. Identify the <strong>smaller</strong> image.</p>
              <p>If the image on the left is smaller, press ""z"". If the image on the right is smaller, press ""m"".</p>
              <p>Press any key to begin.</p>"," ","","","","","","",""
"true","","preload","5","2.0.0","22324","pwcpfs7mks5","smaller","lion","How the actual size of an item in real life and the size of an image of it can affect our perception","Yes, at some time during the experiment, I accidentally pressed the caps lock key so my answered for a chunk of the trials were all wrong. Sorry for the mistake!","","","false","[]","[]","[]","","",""
"","null","html-keyboard-response","6","2.0.0","23326","pwcpfs7mks5","smaller","lion","How the actual size of an item in real life and the size of an image of it can affect our perception","Yes, at some time during the experiment, I accidentally pressed the caps lock key so my answered for a chunk of the trials were all wrong. Sorry for the mistake!","<div style=""font-size:60px;"">+</div>","null","","","","","","",""
"","814","image-keyboard-response","7","2.0.0","24147","pwcpfs7mks5","smaller","lion","How the actual size of an item in real life and the size of an image of it can affect our perception","Yes, at some time during the experiment, I accidentally pressed the caps lock key so my answered for a chunk of the trials were all wrong. Sorry for the mistake!","stimuli/35-Inongruent.jpg","z","","","","","left","z","true"
"","null","html-keyboard-response","8","2.0.0","25050","pwcpfs7mks5","smaller","lion","How the actual size of an item in real life and the size of an image of it can affect our perception","Yes, at some time during the experiment, I accidentally pressed the caps lock key so my answered for a chunk of the trials were all wrong. Sorry for the mistake!","<p>Correct!</p>","null","","","","","","",""
"","null","html-keyboard-response","9","2.0.0","26053","pwcpfs7mks5","smaller","lion","How the actual size of an item in real life and the size of an image of it can affect our perception","Yes, at some time during the experiment, I accidentally pressed the caps lock key so my answered for a chunk of the trials were all wrong. Sorry for the mistake!","<div style=""font-size:60px;"">+</div>","null","","","","","","",""
"","562","image-keyboard-response","10","2.0.0","26617","pwcpfs7mks5","smaller","lion","How the actual size of an item in real life and the size of an image of it can affect our perception","Yes, at some time during the experiment, I accidentally pressed the caps lock key so my answered for a chunk of the trials were all wrong. Sorry for the mistake!","stimuli/32-Congruent.jpg","m","","","","","right","m","true"
"","null","html-keyboard-response","11","2.0.0","27520","pwcpfs7mks5","smaller","lion","How the actual size of an item in real life and the size of an image of it can affect our perception","Yes, at some time during the experiment, I accidentally pressed the caps lock key so my answered for a chunk of the trials were all wrong. Sorry for the mistake!","<p>Correct!</p>","null","","","","","","",""
"","null","html-keyboard-response","12","2.0.0","28523","pwcpfs7mks5","smaller","lion","How the actual size of an item in real life and the size of an image of it can affect our perception","Yes, at some time during the experiment, I accidentally pressed the caps lock key so my answered for a chunk of the trials were all wrong. Sorry for the mistake!","<div style=""font-size:60px;"">+</div>","null","","","","","","",""
"","823","image-keyboard-response","13","2.0.0","29349","pwcpfs7mks5","smaller","lion","How the actual size of an item in real life and the size of an image of it can affect our perception","Yes, at some time during the experiment, I accidentally pressed the caps lock key so my answered for a chunk of the trials were all wrong. Sorry for the mistake!","stimuli/20-Inongruent.jpg","z","","","","","left","z","true"
"","null","html-keyboard-response","14","2.0.0","30252","pwcpfs7mks5","smaller","lion","How the actual size of an item in real life and the size of an image of it can affect our perception","Yes, at some time during the experiment, I accidentally pressed the caps lock key so my answered for a chunk of the trials were all wrong. Sorry for the mistake!","<p>Correct!</p>","null","","","","","","",""
"","null","html-keyboard-response","15","2.0.0","31254","pwcpfs7mks5","smaller","lion","How the actual size of an item in real life and the size of an image of it can affect our perception","Yes, at some time during the experiment, I accidentally pressed the caps lock key so my answered for a chunk of the trials were all wrong. Sorry for the mistake!","<div style=""font-size:60px;"">+</div>","null","","","","","","",""
"","778","image-keyboard-response","16","2.0.0","32035","pwcpfs7mks5","smaller","lion","How the actual size of an item in real life and the size of an image of it can affect our perception","Yes, at some time during the experiment, I accidentally pressed the caps lock key so my answered for a chunk of the trials were all wrong. Sorry for the mistake!","stimuli/14-Congruent.jpg","m","","","","","right","m","true"
"","null","html-keyboard-response","17","2.0.0","32937","pwcpfs7mks5","smaller","lion","How the actual size of an item in real life and the size of an image of it can affect our perception","Yes, at some time during the experiment, I accidentally pressed the caps lock key so my answered for a chunk of the trials were all wrong. Sorry for the mistake!","<p>Correct!</p>","null","","","","","","",""
"","null","html-keyboard-response","18","2.0.0","33940","pwcpfs7mks5","smaller","lion","How the actual size of an item in real life and the size of an image of it can affect our perception","Yes, at some time during the experiment, I accidentally pressed the caps lock key so my answered for a chunk of the trials were all wrong. Sorry for the mistake!","<div style=""font-size:60px;"">+</div>","null","","","","","","",""
"","5634","image-keyboard-response","19","2.0.0","39576","pwcpfs7mks5","smaller","lion","How the actual size of an item in real life and the size of an image of it can affect our perception","Yes, at some time during the experiment, I accidentally pressed the caps lock key so my answered for a chunk of the trials were all wrong. Sorry for the mistake!","stimuli/6-Congruent.jpg","z","","","","","right","m","false"
"","null","html-keyboard-response","20","2.0.0","44578","pwcpfs7mks5","smaller","lion","How the actual size of an item in real life and the size of an image of it can affect our perception","Yes, at some time during the experiment, I accidentally pressed the caps lock key so my answered for a chunk of the trials were all wrong. Sorry for the mistake!","<p>Incorrect.</p><p>Remember to select the <b>smaller</b> image.</p><p>Continuing in 5 seconds...</p>","null","","","","","","",""
"","null","html-keyboard-response","21","2.0.0","45581","pwcpfs7mks5","smaller","lion","How the actual size of an item in real life and the size of an image of it can affect our perception","Yes, at some time during the experiment, I accidentally pressed the caps lock key so my answered for a chunk of the trials were all wrong. Sorry for the mistake!","<div style=""font-size:60px;"">+</div>","null","","","","","","",""
"","1191","image-keyboard-response","22","2.0.0","46775","pwcpfs7mks5","smaller","lion","How the actual size of an item in real life and the size of an image of it can affect our perception","Yes, at some time during the experiment, I accidentally pressed the caps lock key so my answered for a chunk of the trials were all wrong. Sorry for the mistake!","stimuli/25-Congruent.jpg","m","","","","","right","m","true"
"","null","html-keyboard-response","23","2.0.0","47677","pwcpfs7mks5","smaller","lion","How the actual size of an item in real life and the size of an image of it can affect our perception","Yes, at some time during the experiment, I accidentally pressed the caps lock key so my answered for a chunk of the trials were all wrong. Sorry for the mistake!","<p>Correct!</p>","null","","","","","","",""
"","null","html-keyboard-response","24","2.0.0","48680","pwcpfs7mks5","smaller","lion","How the actual size of an item in real life and the size of an image of it can affect our perception","Yes, at some time during the experiment, I accidentally pressed the caps lock key so my answered for a chunk of the trials were all wrong. Sorry for the mistake!","<div style=""font-size:60px;"">+</div>","null","","","","","","",""
"","1086","image-keyboard-response","25","2.0.0","49768","pwcpfs7mks5","smaller","lion","How the actual size of an item in real life and the size of an image of it can affect our perception","Yes, at some time during the experiment, I accidentally pressed the caps lock key so my answered for a chunk of the trials were all wrong. Sorry for the mistake!","stimuli/33-Congruent.jpg","m","","","","","right","m","true"
"","null","html-keyboard-response","26","2.0.0","50670","pwcpfs7mks5","smaller","lion","How the actual size of an item in real life and the size of an image of it can affect our perception","Yes, at some time during the experiment, I accidentally pressed the caps lock key so my answered for a chunk of the trials were all wrong. Sorry for the mistake!","<p>Correct!</p>","null","","","","","","",""
"","null","html-keyboard-response","27","2.0.0","51672","pwcpfs7mks5","smaller","lion","How the actual size of an item in real life and the size of an image of it can affect our perception","Yes, at some time during the experiment, I accidentally pressed the caps lock key so my answered for a chunk of the trials were all wrong. Sorry for the mistake!","<div style=""font-size:60px;"">+</div>","null","","","","","","",""
"","1294","image-keyboard-response","28","2.0.0","52968","pwcpfs7mks5","smaller","lion","How the actual size of an item in real life and the size of an image of it can affect our perception","Yes, at some time during the experiment, I accidentally pressed the caps lock key so my answered for a chunk of the trials were all wrong. Sorry for the mistake!","stimuli/4-Inongruent.jpg","z","","","","","left","z","true"
"","null","html-keyboard-response","29","2.0.0","53871","pwcpfs7mks5","smaller","lion","How the actual size of an item in real life and the size of an image of it can affect our perception","Yes, at some time during the experiment, I accidentally pressed the caps lock key so my answered for a chunk of the trials were all wrong. Sorry for the mistake!","<p>Correct!</p>","null","","","","","","",""
"","null","html-keyboard-response","30","2.0.0","54872","pwcpfs7mks5","smaller","lion","How the actual size of an item in real life and the size of an image of it can affect our perception","Yes, at some time during the experiment, I accidentally pressed the caps lock key so my answered for a chunk of the trials were all wrong. Sorry for the mistake!","<div style=""font-size:60px;"">+</div>","null","","","","","","",""
"","964","image-keyboard-response","31","2.0.0","55839","pwcpfs7mks5","smaller","lion","How the actual size of an item in real life and the size of an image of it can affect our perception","Yes, at some time during the experiment, I accidentally pressed the caps lock key so my answered for a chunk of the trials were all wrong. Sorry for the mistake!","stimuli/23-Congruent.jpg","m","","","","","right","m","true"
"","null","html-keyboard-response","32","2.0.0","56741","pwcpfs7mks5","smaller","lion","How the actual size of an item in real life and the size of an image of it can affect our perception","Yes, at some time during the experiment, I accidentally pressed the caps lock key so my answered for a chunk of the trials were all wrong. Sorry for the mistake!","<p>Correct!</p>","null","","","","","","",""
"","null","html-keyboard-response","33","2.0.0","57744","pwcpfs7mks5","smaller","lion","How the actual size of an item in real life and the size of an image of it can affect our perception","Yes, at some time during the experiment, I accidentally pressed the caps lock key so my answered for a chunk of the trials were all wrong. Sorry for the mistake!","<div style=""font-size:60px;"">+</div>","null","","","","","","",""
"","910","image-keyboard-response","34","2.0.0","58656","pwcpfs7mks5","smaller","lion","How the actual size of an item in real life and the size of an image of it can affect our perception","Yes, at some time during the experiment, I accidentally pressed the caps lock key so my answered for a chunk of the trials were all wrong. Sorry for the mistake!","stimuli/20-Congruent.jpg","m","","","","","right","m","true"
"","null","html-keyboard-response","35","2.0.0","59559","pwcpfs7mks5","smaller","lion","How the actual size of an item in real life and the size of an image of it can affect our perception","Yes, at some time during the experiment, I accidentally pressed the caps lock key so my answered for a chunk of the trials were all wrong. Sorry for the mistake!","<p>Correct!</p>","null","","","","","","",""
"","null","html-keyboard-response","36","2.0.0","60561","pwcpfs7mks5","smaller","lion","How the actual size of an item in real life and the size of an image of it can affect our perception","Yes, at some time during the experiment, I accidentally pressed the caps lock key so my answered for a chunk of the trials were all wrong. Sorry for the mistake!","<div style=""font-size:60px;"">+</div>","null","","","","","","",""
"","954","image-keyboard-response","37","2.0.0","61519","pwcpfs7mks5","smaller","lion","How the actual size of an item in real life and the size of an image of it can affect our perception","Yes, at some time during the experiment, I accidentally pressed the caps lock key so my answered for a chunk of the trials were all wrong. Sorry for the mistake!","stimuli/13-Inongruent.jpg","z","","","","","left","z","true"
"","null","html-keyboard-response","38","2.0.0","62421","pwcpfs7mks5","smaller","lion","How the actual size of an item in real life and the size of an image of it can affect our perception","Yes, at some time during the experiment, I accidentally pressed the caps lock key so my answered for a chunk of the trials were all wrong. Sorry for the mistake!","<p>Correct!</p>","null","","","","","","",""
"","null","html-keyboard-response","39","2.0.0","63423","pwcpfs7mks5","smaller","lion","How the actual size of an item in real life and the size of an image of it can affect our perception","Yes, at some time during the experiment, I accidentally pressed the caps lock key so my answered for a chunk of the trials were all wrong. Sorry for the mistake!","<div style=""font-size:60px;"">+</div>","null","","","","","","",""
"","970","image-keyboard-response","40","2.0.0","64395","pwcpfs7mks5","smaller","lion","How the actual size of an item in real life and the size of an image of it can affect our perception","Yes, at some time during the experiment, I accidentally pressed the caps lock key so my answered for a chunk of the trials were all wrong. Sorry for the mistake!","stimuli/31-Inongruent.jpg","z","","","","","left","z","true"
"","null","html-keyboard-response","41","2.0.0","65297","pwcpfs7mks5","smaller","lion","How the actual size of an item in real life and the size of an image of it can affect our perception","Yes, at some time during the experiment, I accidentally pressed the caps lock key so my answered for a chunk of the trials were all wrong. Sorry for the mistake!","<p>Correct!</p>","null","","","","","","",""
"","null","html-keyboard-response","42","2.0.0","66300","pwcpfs7mks5","smaller","lion","How the actual size of an item in real life and the size of an image of it can affect our perception","Yes, at some time during the experiment, I accidentally pressed the caps lock key so my answered for a chunk of the trials were all wrong. Sorry for the mistake!","<div style=""font-size:60px;"">+</div>","null","","","","","","",""
"","782","image-keyboard-response","43","2.0.0","67084","pwcpfs7mks5","smaller","lion","How the actual size of an item in real life and the size of an image of it can affect our perception","Yes, at some time during the experiment, I accidentally pressed the caps lock key so my answered for a chunk of the trials were all wrong. Sorry for the mistake!","stimuli/7-Congruent.jpg","m","","","","","right","m","true"
"","null","html-keyboard-response","44","2.0.0","67986","pwcpfs7mks5","smaller","lion","How the actual size of an item in real life and the size of an image of it can affect our perception","Yes, at some time during the experiment, I accidentally pressed the caps lock key so my answered for a chunk of the trials were all wrong. Sorry for the mistake!","<p>Correct!</p>","null","","","","","","",""
"","null","html-keyboard-response","45","2.0.0","68989","pwcpfs7mks5","smaller","lion","How the actual size of an item in real life and the size of an image of it can affect our perception","Yes, at some time during the experiment, I accidentally pressed the caps lock key so my answered for a chunk of the trials were all wrong. Sorry for the mistake!","<div style=""font-size:60px;"">+</div>","null","","","","","","",""
"","616","image-keyboard-response","46","2.0.0","69607","pwcpfs7mks5","smaller","lion","How the actual size of an item in real life and the size of an image of it can affect our perception","Yes, at some time during the experiment, I accidentally pressed the caps lock key so my answered for a chunk of the trials were all wrong. Sorry for the mistake!","stimuli/15-Congruent.jpg","m","","","","","right","m","true"
"","null","html-keyboard-response","47","2.0.0","70510","pwcpfs7mks5","smaller","lion","How the actual size of an item in real life and the size of an image of it can affect our perception","Yes, at some time during the experiment, I accidentally pressed the caps lock key so my answered for a chunk of the trials were all wrong. Sorry for the mistake!","<p>Correct!</p>","null","","","","","","",""
"","null","html-keyboard-response","48","2.0.0","71512","pwcpfs7mks5","smaller","lion","How the actual size of an item in real life and the size of an image of it can affect our perception","Yes, at some time during the experiment, I accidentally pressed the caps lock key so my answered for a chunk of the trials were all wrong. Sorry for the mistake!","<div style=""font-size:60px;"">+</div>","null","","","","","","",""
"","817","image-keyboard-response","49","2.0.0","72330","pwcpfs7mks5","smaller","lion","How the actual size of an item in real life and the size of an image of it can affect our perception","Yes, at some time during the experiment, I accidentally pressed the caps lock key so my answered for a chunk of the trials were all wrong. Sorry for the mistake!","stimuli/21-Inongruent.jpg","z","","","","","left","z","true"
"","null","html-keyboard-response","50","2.0.0","73232","pwcpfs7mks5","smaller","lion","How the actual size of an item in real life and the size of an image of it can affect our perception","Yes, at some time during the experiment, I accidentally pressed the caps lock key so my answered for a chunk of the trials were all wrong. Sorry for the mistake!","<p>Correct!</p>","null","","","","","","",""
"","null","html-keyboard-response","51","2.0.0","74235","pwcpfs7mks5","smaller","lion","How the actual size of an item in real life and the size of an image of it can affect our perception","Yes, at some time during the experiment, I accidentally pressed the caps lock key so my answered for a chunk of the trials were all wrong. Sorry for the mistake!","<div style=""font-size:60px;"">+</div>","null","","","","","","",""
"","804","image-keyboard-response","52","2.0.0","75041","pwcpfs7mks5","smaller","lion","How the actual size of an item in real life and the size of an image of it can affect our perception","Yes, at some time during the experiment, I accidentally pressed the caps lock key so my answered for a chunk of the trials were all wrong. Sorry for the mistake!","stimuli/36-Congruent.jpg","m","","","","","right","m","true"
"","null","html-keyboard-response","53","2.0.0","75942","pwcpfs7mks5","smaller","lion","How the actual size of an item in real life and the size of an image of it can affect our perception","Yes, at some time during the experiment, I accidentally pressed the caps lock key so my answered for a chunk of the trials were all wrong. Sorry for the mistake!","<p>Correct!</p>","null","","","","","","",""
"","null","html-keyboard-response","54","2.0.0","76945","pwcpfs7mks5","smaller","lion","How the actual size of an item in real life and the size of an image of it can affect our perception","Yes, at some time during the experiment, I accidentally pressed the caps lock key so my answered for a chunk of the trials were all wrong. Sorry for the mistake!","<div style=""font-size:60px;"">+</div>","null","","","","","","",""
"","1087","image-keyboard-response","55","2.0.0","78034","pwcpfs7mks5","smaller","lion","How the actual size of an item in real life and the size of an image of it can affect our perception","Yes, at some time during the experiment, I accidentally pressed the caps lock key so my answered for a chunk of the trials were all wrong. Sorry for the mistake!","stimuli/9-Inongruent.jpg","z","","","","","left","z","true"
"","null","html-keyboard-response","56","2.0.0","78936","pwcpfs7mks5","smaller","lion","How the actual size of an item in real life and the size of an image of it can affect our perception","Yes, at some time during the experiment, I accidentally pressed the caps lock key so my answered for a chunk of the trials were all wrong. Sorry for the mistake!","<p>Correct!</p>","null","","","","","","",""
"","null","html-keyboard-response","57","2.0.0","79939","pwcpfs7mks5","smaller","lion","How the actual size of an item in real life and the size of an image of it can affect our perception","Yes, at some time during the experiment, I accidentally pressed the caps lock key so my answered for a chunk of the trials were all wrong. Sorry for the mistake!","<div style=""font-size:60px;"">+</div>","null","","","","","","",""
"","543","image-keyboard-response","58","2.0.0","80484","pwcpfs7mks5","smaller","lion","How the actual size of an item in real life and the size of an image of it can affect our perception","Yes, at some time during the experiment, I accidentally pressed the caps lock key so my answered for a chunk of the trials were all wrong. Sorry for the mistake!","stimuli/24-Congruent.jpg","m","","","","","right","m","true"
"","null","html-keyboard-response","59","2.0.0","81387","pwcpfs7mks5","smaller","lion","How the actual size of an item in real life and the size of an image of it can affect our perception","Yes, at some time during the experiment, I accidentally pressed the caps lock key so my answered for a chunk of the trials were all wrong. Sorry for the mistake!","<p>Correct!</p>","null","","","","","","",""
"","null","html-keyboard-response","60","2.0.0","82390","pwcpfs7mks5","smaller","lion","How the actual size of an item in real life and the size of an image of it can affect our perception","Yes, at some time during the experiment, I accidentally pressed the caps lock key so my answered for a chunk of the trials were all wrong. Sorry for the mistake!","<div style=""font-size:60px;"">+</div>","null","","","","","","",""
"","677","image-keyboard-response","61","2.0.0","83070","pwcpfs7mks5","smaller","lion","How the actual size of an item in real life and the size of an image of it can affect our perception","Yes, at some time during the experiment, I accidentally pressed the caps lock key so my answered for a chunk of the trials were all wrong. Sorry for the mistake!","stimuli/34-Inongruent.jpg","z","","","","","left","z","true"
"","null","html-keyboard-response","62","2.0.0","83972","pwcpfs7mks5","smaller","lion","How the actual size of an item in real life and the size of an image of it can affect our perception","Yes, at some time during the experiment, I accidentally pressed the caps lock key so my answered for a chunk of the trials were all wrong. Sorry for the mistake!","<p>Correct!</p>","null","","","","","","",""
"","null","html-keyboard-response","63","2.0.0","84974","pwcpfs7mks5","smaller","lion","How the actual size of an item in real life and the size of an image of it can affect our perception","Yes, at some time during the experiment, I accidentally pressed the caps lock key so my answered for a chunk of the trials were all wrong. Sorry for the mistake!","<div style=""font-size:60px;"">+</div>","null","","","","","","",""
"","545","image-keyboard-response","64","2.0.0","85521","pwcpfs7mks5","smaller","lion","How the actual size of an item in real life and the size of an image of it can affect our perception","Yes, at some time during the experiment, I accidentally pressed the caps lock key so my answered for a chunk of the trials were all wrong. Sorry for the mistake!","stimuli/10-Congruent.jpg","m","","","","","right","m","true"
"","null","html-keyboard-response","65","2.0.0","86424","pwcpfs7mks5","smaller","lion","How the actual size of an item in real life and the size of an image of it can affect our perception","Yes, at some time during the experiment, I accidentally pressed the caps lock key so my answered for a chunk of the trials were all wrong. Sorry for the mistake!","<p>Correct!</p>","null","","","","","","",""
"","null","html-keyboard-response","66","2.0.0","87427","pwcpfs7mks5","smaller","lion","How the actual size of an item in real life and the size of an image of it can affect our perception","Yes, at some time during the experiment, I accidentally pressed the caps lock key so my answered for a chunk of the trials were all wrong. Sorry for the mistake!","<div style=""font-size:60px;"">+</div>","null","","","","","","",""
"","771","image-keyboard-response","67","2.0.0","88199","pwcpfs7mks5","smaller","lion","How the actual size of an item in real life and the size of an image of it can affect our perception","Yes, at some time during the experiment, I accidentally pressed the caps lock key so my answered for a chunk of the trials were all wrong. Sorry for the mistake!","stimuli/12-Inongruent.jpg","z","","","","","left","z","true"
"","null","html-keyboard-response","68","2.0.0","89101","pwcpfs7mks5","smaller","lion","How the actual size of an item in real life and the size of an image of it can affect our perception","Yes, at some time during the experiment, I accidentally pressed the caps lock key so my answered for a chunk of the trials were all wrong. Sorry for the mistake!","<p>Correct!</p>","null","","","","","","",""
"","null","html-keyboard-response","69","2.0.0","90103","pwcpfs7mks5","smaller","lion","How the actual size of an item in real life and the size of an image of it can affect our perception","Yes, at some time during the experiment, I accidentally pressed the caps lock key so my answered for a chunk of the trials were all wrong. Sorry for the mistake!","<div style=""font-size:60px;"">+</div>","null","","","","","","",""
"","727","image-keyboard-response","70","2.0.0","90836","pwcpfs7mks5","smaller","lion","How the actual size of an item in real life and the size of an image of it can affect our perception","Yes, at some time during the experiment, I accidentally pressed the caps lock key so my answered for a chunk of the trials were all wrong. Sorry for the mistake!","stimuli/16-Congruent.jpg","m","","","","","right","m","true"
"","null","html-keyboard-response","71","2.0.0","91739","pwcpfs7mks5","smaller","lion","How the actual size of an item in real life and the size of an image of it can affect our perception","Yes, at some time during the experiment, I accidentally pressed the caps lock key so my answered for a chunk of the trials were all wrong. Sorry for the mistake!","<p>Correct!</p>","null","","","","","","",""
"","null","html-keyboard-response","72","2.0.0","92742","pwcpfs7mks5","smaller","lion","How the actual size of an item in real life and the size of an image of it can affect our perception","Yes, at some time during the experiment, I accidentally pressed the caps lock key so my answered for a chunk of the trials were all wrong. Sorry for the mistake!","<div style=""font-size:60px;"">+</div>","null","","","","","","",""
"","602","image-keyboard-response","73","2.0.0","93345","pwcpfs7mks5","smaller","lion","How the actual size of an item in real life and the size of an image of it can affect our perception","Yes, at some time during the experiment, I accidentally pressed the caps lock key so my answered for a chunk of the trials were all wrong. Sorry for the mistake!","stimuli/17-Congruent.jpg","m","","","","","right","m","true"
"","null","html-keyboard-response","74","2.0.0","94247","pwcpfs7mks5","smaller","lion","How the actual size of an item in real life and the size of an image of it can affect our perception","Yes, at some time during the experiment, I accidentally pressed the caps lock key so my answered for a chunk of the trials were all wrong. Sorry for the mistake!","<p>Correct!</p>","null","","","","","","",""
"","null","html-keyboard-response","75","2.0.0","95249","pwcpfs7mks5","smaller","lion","How the actual size of an item in real life and the size of an image of it can affect our perception","Yes, at some time during the experiment, I accidentally pressed the caps lock key so my answered for a chunk of the trials were all wrong. Sorry for the mistake!","<div style=""font-size:60px;"">+</div>","null","","","","","","",""
"","674","image-keyboard-response","76","2.0.0","95926","pwcpfs7mks5","smaller","lion","How the actual size of an item in real life and the size of an image of it can affect our perception","Yes, at some time during the experiment, I accidentally pressed the caps lock key so my answered for a chunk of the trials were all wrong. Sorry for the mistake!","stimuli/6-Inongruent.jpg","z","","","","","left","z","true"
"","null","html-keyboard-response","77","2.0.0","96828","pwcpfs7mks5","smaller","lion","How the actual size of an item in real life and the size of an image of it can affect our perception","Yes, at some time during the experiment, I accidentally pressed the caps lock key so my answered for a chunk of the trials were all wrong. Sorry for the mistake!","<p>Correct!</p>","null","","","","","","",""
"","null","html-keyboard-response","78","2.0.0","97831","pwcpfs7mks5","smaller","lion","How the actual size of an item in real life and the size of an image of it can affect our perception","Yes, at some time during the experiment, I accidentally pressed the caps lock key so my answered for a chunk of the trials were all wrong. Sorry for the mistake!","<div style=""font-size:60px;"">+</div>","null","","","","","","",""
"","840","image-keyboard-response","79","2.0.0","98673","pwcpfs7mks5","smaller","lion","How the actual size of an item in real life and the size of an image of it can affect our perception","Yes, at some time during the experiment, I accidentally pressed the caps lock key so my answered for a chunk of the trials were all wrong. Sorry for the mistake!","stimuli/1-Inongruent.jpg","z","","","","","left","z","true"
"","null","html-keyboard-response","80","2.0.0","99575","pwcpfs7mks5","smaller","lion","How the actual size of an item in real life and the size of an image of it can affect our perception","Yes, at some time during the experiment, I accidentally pressed the caps lock key so my answered for a chunk of the trials were all wrong. Sorry for the mistake!","<p>Correct!</p>","null","","","","","","",""
"","null","html-keyboard-response","81","2.0.0","100578","pwcpfs7mks5","smaller","lion","How the actual size of an item in real life and the size of an image of it can affect our perception","Yes, at some time during the experiment, I accidentally pressed the caps lock key so my answered for a chunk of the trials were all wrong. Sorry for the mistake!","<div style=""font-size:60px;"">+</div>","null","","","","","","",""
"","1170","image-keyboard-response","82","2.0.0","101750","pwcpfs7mks5","smaller","lion","How the actual size of an item in real life and the size of an image of it can affect our perception","Yes, at some time during the experiment, I accidentally pressed the caps lock key so my answered for a chunk of the trials were all wrong. Sorry for the mistake!","stimuli/12-Inongruent.jpg","m","","","","","left","z","false"
"","null","html-keyboard-response","83","2.0.0","106753","pwcpfs7mks5","smaller","lion","How the actual size of an item in real life and the size of an image of it can affect our perception","Yes, at some time during the experiment, I accidentally pressed the caps lock key so my answered for a chunk of the trials were all wrong. Sorry for the mistake!","<p>Incorrect.</p><p>Remember to select the <b>smaller</b> image.</p><p>Continuing in 5 seconds...</p>","null","","","","","","",""
"","null","html-keyboard-response","84","2.0.0","107755","pwcpfs7mks5","smaller","lion","How the actual size of an item in real life and the size of an image of it can affect our perception","Yes, at some time during the experiment, I accidentally pressed the caps lock key so my answered for a chunk of the trials were all wrong. Sorry for the mistake!","<div style=""font-size:60px;"">+</div>","null","","","","","","",""
"","974","image-keyboard-response","85","2.0.0","108731","pwcpfs7mks5","smaller","lion","How the actual size of an item in real life and the size of an image of it can affect our perception","Yes, at some time during the experiment, I accidentally pressed the caps lock key so my answered for a chunk of the trials were all wrong. Sorry for the mistake!","stimuli/15-Inongruent.jpg","z","","","","","left","z","true"
"","null","html-keyboard-response","86","2.0.0","109633","pwcpfs7mks5","smaller","lion","How the actual size of an item in real life and the size of an image of it can affect our perception","Yes, at some time during the experiment, I accidentally pressed the caps lock key so my answered for a chunk of the trials were all wrong. Sorry for the mistake!","<p>Correct!</p>","null","","","","","","",""
"","null","html-keyboard-response","87","2.0.0","110636","pwcpfs7mks5","smaller","lion","How the actual size of an item in real life and the size of an image of it can affect our perception","Yes, at some time during the experiment, I accidentally pressed the caps lock key so my answered for a chunk of the trials were all wrong. Sorry for the mistake!","<div style=""font-size:60px;"">+</div>","null","","","","","","",""
"","968","image-keyboard-response","88","2.0.0","111606","pwcpfs7mks5","smaller","lion","How the actual size of an item in real life and the size of an image of it can affect our perception","Yes, at some time during the experiment, I accidentally pressed the caps lock key so my answered for a chunk of the trials were all wrong. Sorry for the mistake!","stimuli/16-Inongruent.jpg","z","","","","","left","z","true"
"","null","html-keyboard-response","89","2.0.0","112508","pwcpfs7mks5","smaller","lion","How the actual size of an item in real life and the size of an image of it can affect our perception","Yes, at some time during the experiment, I accidentally pressed the caps lock key so my answered for a chunk of the trials were all wrong. Sorry for the mistake!","<p>Correct!</p>","null","","","","","","",""
"","null","html-keyboard-response","90","2.0.0","113511","pwcpfs7mks5","smaller","lion","How the actual size of an item in real life and the size of an image of it can affect our perception","Yes, at some time during the experiment, I accidentally pressed the caps lock key so my answered for a chunk of the trials were all wrong. Sorry for the mistake!","<div style=""font-size:60px;"">+</div>","null","","","","","","",""
"","560","image-keyboard-response","91","2.0.0","114073","pwcpfs7mks5","smaller","lion","How the actual size of an item in real life and the size of an image of it can affect our perception","Yes, at some time during the experiment, I accidentally pressed the caps lock key so my answered for a chunk of the trials were all wrong. Sorry for the mistake!","stimuli/22-Inongruent.jpg","z","","","","","left","z","true"
"","null","html-keyboard-response","92","2.0.0","114976","pwcpfs7mks5","smaller","lion","How the actual size of an item in real life and the size of an image of it can affect our perception","Yes, at some time during the experiment, I accidentally pressed the caps lock key so my answered for a chunk of the trials were all wrong. Sorry for the mistake!","<p>Correct!</p>","null","","","","","","",""
"","null","html-keyboard-response","93","2.0.0","115979","pwcpfs7mks5","smaller","lion","How the actual size of an item in real life and the size of an image of it can affect our perception","Yes, at some time during the experiment, I accidentally pressed the caps lock key so my answered for a chunk of the trials were all wrong. Sorry for the mistake!","<div style=""font-size:60px;"">+</div>","null","","","","","","",""
"","553","image-keyboard-response","94","2.0.0","116534","pwcpfs7mks5","smaller","lion","How the actual size of an item in real life and the size of an image of it can affect our perception","Yes, at some time during the experiment, I accidentally pressed the caps lock key so my answered for a chunk of the trials were all wrong. Sorry for the mistake!","stimuli/31-Congruent.jpg","m","","","","","right","m","true"
"","null","html-keyboard-response","95","2.0.0","117436","pwcpfs7mks5","smaller","lion","How the actual size of an item in real life and the size of an image of it can affect our perception","Yes, at some time during the experiment, I accidentally pressed the caps lock key so my answered for a chunk of the trials were all wrong. Sorry for the mistake!","<p>Correct!</p>","null","","","","","","",""
"","null","html-keyboard-response","96","2.0.0","118439","pwcpfs7mks5","smaller","lion","How the actual size of an item in real life and the size of an image of it can affect our perception","Yes, at some time during the experiment, I accidentally pressed the caps lock key so my answered for a chunk of the trials were all wrong. Sorry for the mistake!","<div style=""font-size:60px;"">+</div>","null","","","","","","",""
"","1516","image-keyboard-response","97","2.0.0","119957","pwcpfs7mks5","smaller","lion","How the actual size of an item in real life and the size of an image of it can affect our perception","Yes, at some time during the experiment, I accidentally pressed the caps lock key so my answered for a chunk of the trials were all wrong. Sorry for the mistake!","stimuli/27-Inongruent.jpg","z","","","","","left","z","true"
"","null","html-keyboard-response","98","2.0.0","120859","pwcpfs7mks5","smaller","lion","How the actual size of an item in real life and the size of an image of it can affect our perception","Yes, at some time during the experiment, I accidentally pressed the caps lock key so my answered for a chunk of the trials were all wrong. Sorry for the mistake!","<p>Correct!</p>","null","","","","","","",""
"","null","html-keyboard-response","99","2.0.0","121861","pwcpfs7mks5","smaller","lion","How the actual size of an item in real life and the size of an image of it can affect our perception","Yes, at some time during the experiment, I accidentally pressed the caps lock key so my answered for a chunk of the trials were all wrong. Sorry for the mistake!","<div style=""font-size:60px;"">+</div>","null","","","","","","",""
"","701","image-keyboard-response","100","2.0.0","122564","pwcpfs7mks5","smaller","lion","How the actual size of an item in real life and the size of an image of it can affect our perception","Yes, at some time during the experiment, I accidentally pressed the caps lock key so my answered for a chunk of the trials were all wrong. Sorry for the mistake!","stimuli/13-Inongruent.jpg","z","","","","","left","z","true"
"","null","html-keyboard-response","101","2.0.0","123466","pwcpfs7mks5","smaller","lion","How the actual size of an item in real life and the size of an image of it can affect our perception","Yes, at some time during the experiment, I accidentally pressed the caps lock key so my answered for a chunk of the trials were all wrong. Sorry for the mistake!","<p>Correct!</p>","null","","","","","","",""
"","null","html-keyboard-response","102","2.0.0","124469","pwcpfs7mks5","smaller","lion","How the actual size of an item in real life and the size of an image of it can affect our perception","Yes, at some time during the experiment, I accidentally pressed the caps lock key so my answered for a chunk of the trials were all wrong. Sorry for the mistake!","<div style=""font-size:60px;"">+</div>","null","","","","","","",""
"","712","image-keyboard-response","103","2.0.0","125182","pwcpfs7mks5","smaller","lion","How the actual size of an item in real life and the size of an image of it can affect our perception","Yes, at some time during the experiment, I accidentally pressed the caps lock key so my answered for a chunk of the trials were all wrong. Sorry for the mistake!","stimuli/17-Congruent.jpg","m","","","","","right","m","true"
"","null","html-keyboard-response","104","2.0.0","126085","pwcpfs7mks5","smaller","lion","How the actual size of an item in real life and the size of an image of it can affect our perception","Yes, at some time during the experiment, I accidentally pressed the caps lock key so my answered for a chunk of the trials were all wrong. Sorry for the mistake!","<p>Correct!</p>","null","","","","","","",""
"","null","html-keyboard-response","105","2.0.0","127087","pwcpfs7mks5","smaller","lion","How the actual size of an item in real life and the size of an image of it can affect our perception","Yes, at some time during the experiment, I accidentally pressed the caps lock key so my answered for a chunk of the trials were all wrong. Sorry for the mistake!","<div style=""font-size:60px;"">+</div>","null","","","","","","",""
"","708","image-keyboard-response","106","2.0.0","127797","pwcpfs7mks5","smaller","lion","How the actual size of an item in real life and the size of an image of it can affect our perception","Yes, at some time during the experiment, I accidentally pressed the caps lock key so my answered for a chunk of the trials were all wrong. Sorry for the mistake!","stimuli/8-Inongruent.jpg","z","","","","","left","z","true"
"","null","html-keyboard-response","107","2.0.0","128700","pwcpfs7mks5","smaller","lion","How the actual size of an item in real life and the size of an image of it can affect our perception","Yes, at some time during the experiment, I accidentally pressed the caps lock key so my answered for a chunk of the trials were all wrong. Sorry for the mistake!","<p>Correct!</p>","null","","","","","","",""
"","null","html-keyboard-response","108","2.0.0","129703","pwcpfs7mks5","smaller","lion","How the actual size of an item in real life and the size of an image of it can affect our perception","Yes, at some time during the experiment, I accidentally pressed the caps lock key so my answered for a chunk of the trials were all wrong. Sorry for the mistake!","<div style=""font-size:60px;"">+</div>","null","","","","","","",""
"","785","image-keyboard-response","109","2.0.0","130490","pwcpfs7mks5","smaller","lion","How the actual size of an item in real life and the size of an image of it can affect our perception","Yes, at some time during the experiment, I accidentally pressed the caps lock key so my answered for a chunk of the trials were all wrong. Sorry for the mistake!","stimuli/27-Congruent.jpg","m","","","","","right","m","true"
"","null","html-keyboard-response","110","2.0.0","131392","pwcpfs7mks5","smaller","lion","How the actual size of an item in real life and the size of an image of it can affect our perception","Yes, at some time during the experiment, I accidentally pressed the caps lock key so my answered for a chunk of the trials were all wrong. Sorry for the mistake!","<p>Correct!</p>","null","","","","","","",""
"","null","html-keyboard-response","111","2.0.0","132395","pwcpfs7mks5","smaller","lion","How the actual size of an item in real life and the size of an image of it can affect our perception","Yes, at some time during the experiment, I accidentally pressed the caps lock key so my answered for a chunk of the trials were all wrong. Sorry for the mistake!","<div style=""font-size:60px;"">+</div>","null","","","","","","",""
"","727","image-keyboard-response","112","2.0.0","133124","pwcpfs7mks5","smaller","lion","How the actual size of an item in real life and the size of an image of it can affect our perception","Yes, at some time during the experiment, I accidentally pressed the caps lock key so my answered for a chunk of the trials were all wrong. Sorry for the mistake!","stimuli/32-Inongruent.jpg","z","","","","","left","z","true"
"","null","html-keyboard-response","113","2.0.0","134026","pwcpfs7mks5","smaller","lion","How the actual size of an item in real life and the size of an image of it can affect our perception","Yes, at some time during the experiment, I accidentally pressed the caps lock key so my answered for a chunk of the trials were all wrong. Sorry for the mistake!","<p>Correct!</p>","null","","","","","","",""
"","null","html-keyboard-response","114","2.0.0","135028","pwcpfs7mks5","smaller","lion","How the actual size of an item in real life and the size of an image of it can affect our perception","Yes, at some time during the experiment, I accidentally pressed the caps lock key so my answered for a chunk of the trials were all wrong. Sorry for the mistake!","<div style=""font-size:60px;"">+</div>","null","","","","","","",""
"","611","image-keyboard-response","115","2.0.0","135641","pwcpfs7mks5","smaller","lion","How the actual size of an item in real life and the size of an image of it can affect our perception","Yes, at some time during the experiment, I accidentally pressed the caps lock key so my answered for a chunk of the trials were all wrong. Sorry for the mistake!","stimuli/4-Congruent.jpg","m","","","","","right","m","true"
"","null","html-keyboard-response","116","2.0.0","136544","pwcpfs7mks5","smaller","lion","How the actual size of an item in real life and the size of an image of it can affect our perception","Yes, at some time during the experiment, I accidentally pressed the caps lock key so my answered for a chunk of the trials were all wrong. Sorry for the mistake!","<p>Correct!</p>","null","","","","","","",""
"","null","html-keyboard-response","117","2.0.0","137547","pwcpfs7mks5","smaller","lion","How the actual size of an item in real life and the size of an image of it can affect our perception","Yes, at some time during the experiment, I accidentally pressed the caps lock key so my answered for a chunk of the trials were all wrong. Sorry for the mistake!","<div style=""font-size:60px;"">+</div>","null","","","","","","",""
"","703","image-keyboard-response","118","2.0.0","138252","pwcpfs7mks5","smaller","lion","How the actual size of an item in real life and the size of an image of it can affect our perception","Yes, at some time during the experiment, I accidentally pressed the caps lock key so my answered for a chunk of the trials were all wrong. Sorry for the mistake!","stimuli/9-Inongruent.jpg","z","","","","","left","z","true"
"","null","html-keyboard-response","119","2.0.0","139155","pwcpfs7mks5","smaller","lion","How the actual size of an item in real life and the size of an image of it can affect our perception","Yes, at some time during the experiment, I accidentally pressed the caps lock key so my answered for a chunk of the trials were all wrong. Sorry for the mistake!","<p>Correct!</p>","null","","","","","","",""
"","null","html-keyboard-response","120","2.0.0","140160","pwcpfs7mks5","smaller","lion","How the actual size of an item in real life and the size of an image of it can affect our perception","Yes, at some time during the experiment, I accidentally pressed the caps lock key so my answered for a chunk of the trials were all wrong. Sorry for the mistake!","<div style=""font-size:60px;"">+</div>","null","","","","","","",""
"","660","image-keyboard-response","121","2.0.0","140822","pwcpfs7mks5","smaller","lion","How the actual size of an item in real life and the size of an image of it can affect our perception","Yes, at some time during the experiment, I accidentally pressed the caps lock key so my answered for a chunk of the trials were all wrong. Sorry for the mistake!","stimuli/18-Congruent.jpg","m","","","","","right","m","true"
"","null","html-keyboard-response","122","2.0.0","141725","pwcpfs7mks5","smaller","lion","How the actual size of an item in real life and the size of an image of it can affect our perception","Yes, at some time during the experiment, I accidentally pressed the caps lock key so my answered for a chunk of the trials were all wrong. Sorry for the mistake!","<p>Correct!</p>","null","","","","","","",""
"","null","html-keyboard-response","123","2.0.0","142728","pwcpfs7mks5","smaller","lion","How the actual size of an item in real life and the size of an image of it can affect our perception","Yes, at some time during the experiment, I accidentally pressed the caps lock key so my answered for a chunk of the trials were all wrong. Sorry for the mistake!","<div style=""font-size:60px;"">+</div>","null","","","","","","",""
"","709","image-keyboard-response","124","2.0.0","143439","pwcpfs7mks5","smaller","lion","How the actual size of an item in real life and the size of an image of it can affect our perception","Yes, at some time during the experiment, I accidentally pressed the caps lock key so my answered for a chunk of the trials were all wrong. Sorry for the mistake!","stimuli/28-Inongruent.jpg","z","","","","","left","z","true"
"","null","html-keyboard-response","125","2.0.0","144341","pwcpfs7mks5","smaller","lion","How the actual size of an item in real life and the size of an image of it can affect our perception","Yes, at some time during the experiment, I accidentally pressed the caps lock key so my answered for a chunk of the trials were all wrong. Sorry for the mistake!","<p>Correct!</p>","null","","","","","","",""
"","null","html-keyboard-response","126","2.0.0","145343","pwcpfs7mks5","smaller","lion","How the actual size of an item in real life and the size of an image of it can affect our perception","Yes, at some time during the experiment, I accidentally pressed the caps lock key so my answered for a chunk of the trials were all wrong. Sorry for the mistake!","<div style=""font-size:60px;"">+</div>","null","","","","","","",""
"","696","image-keyboard-response","127","2.0.0","146041","pwcpfs7mks5","smaller","lion","How the actual size of an item in real life and the size of an image of it can affect our perception","Yes, at some time during the experiment, I accidentally pressed the caps lock key so my answered for a chunk of the trials were all wrong. Sorry for the mistake!","stimuli/26-Congruent.jpg","m","","","","","right","m","true"
"","null","html-keyboard-response","128","2.0.0","146944","pwcpfs7mks5","smaller","lion","How the actual size of an item in real life and the size of an image of it can affect our perception","Yes, at some time during the experiment, I accidentally pressed the caps lock key so my answered for a chunk of the trials were all wrong. Sorry for the mistake!","<p>Correct!</p>","null","","","","","","",""
"","null","html-keyboard-response","129","2.0.0","147947","pwcpfs7mks5","smaller","lion","How the actual size of an item in real life and the size of an image of it can affect our perception","Yes, at some time during the experiment, I accidentally pressed the caps lock key so my answered for a chunk of the trials were all wrong. Sorry for the mistake!","<div style=""font-size:60px;"">+</div>","null","","","","","","",""
"","614","image-keyboard-response","130","2.0.0","148563","pwcpfs7mks5","smaller","lion","How the actual size of an item in real life and the size of an image of it can affect our perception","Yes, at some time during the experiment, I accidentally pressed the caps lock key so my answered for a chunk of the trials were all wrong. Sorry for the mistake!","stimuli/24-Congruent.jpg","m","","","","","right","m","true"
"","null","html-keyboard-response","131","2.0.0","149465","pwcpfs7mks5","smaller","lion","How the actual size of an item in real life and the size of an image of it can affect our perception","Yes, at some time during the experiment, I accidentally pressed the caps lock key so my answered for a chunk of the trials were all wrong. Sorry for the mistake!","<p>Correct!</p>","null","","","","","","",""
"","null","html-keyboard-response","132","2.0.0","150468","pwcpfs7mks5","smaller","lion","How the actual size of an item in real life and the size of an image of it can affect our perception","Yes, at some time during the experiment, I accidentally pressed the caps lock key so my answered for a chunk of the trials were all wrong. Sorry for the mistake!","<div style=""font-size:60px;"">+</div>","null","","","","","","",""
"","536","image-keyboard-response","133","2.0.0","151007","pwcpfs7mks5","smaller","lion","How the actual size of an item in real life and the size of an image of it can affect our perception","Yes, at some time during the experiment, I accidentally pressed the caps lock key so my answered for a chunk of the trials were all wrong. Sorry for the mistake!","stimuli/33-Inongruent.jpg","z","","","","","left","z","true"
"","null","html-keyboard-response","134","2.0.0","151909","pwcpfs7mks5","smaller","lion","How the actual size of an item in real life and the size of an image of it can affect our perception","Yes, at some time during the experiment, I accidentally pressed the caps lock key so my answered for a chunk of the trials were all wrong. Sorry for the mistake!","<p>Correct!</p>","null","","","","","","",""
"","null","html-keyboard-response","135","2.0.0","152912","pwcpfs7mks5","smaller","lion","How the actual size of an item in real life and the size of an image of it can affect our perception","Yes, at some time during the experiment, I accidentally pressed the caps lock key so my answered for a chunk of the trials were all wrong. Sorry for the mistake!","<div style=""font-size:60px;"">+</div>","null","","","","","","",""
"","586","image-keyboard-response","136","2.0.0","153499","pwcpfs7mks5","smaller","lion","How the actual size of an item in real life and the size of an image of it can affect our perception","Yes, at some time during the experiment, I accidentally pressed the caps lock key so my answered for a chunk of the trials were all wrong. Sorry for the mistake!","stimuli/20-Congruent.jpg","m","","","","","right","m","true"
"","null","html-keyboard-response","137","2.0.0","154402","pwcpfs7mks5","smaller","lion","How the actual size of an item in real life and the size of an image of it can affect our perception","Yes, at some time during the experiment, I accidentally pressed the caps lock key so my answered for a chunk of the trials were all wrong. Sorry for the mistake!","<p>Correct!</p>","null","","","","","","",""
"","null","html-keyboard-response","138","2.0.0","155404","pwcpfs7mks5","smaller","lion","How the actual size of an item in real life and the size of an image of it can affect our perception","Yes, at some time during the experiment, I accidentally pressed the caps lock key so my answered for a chunk of the trials were all wrong. Sorry for the mistake!","<div style=""font-size:60px;"">+</div>","null","","","","","","",""
"","537","image-keyboard-response","139","2.0.0","155944","pwcpfs7mks5","smaller","lion","How the actual size of an item in real life and the size of an image of it can affect our perception","Yes, at some time during the experiment, I accidentally pressed the caps lock key so my answered for a chunk of the trials were all wrong. Sorry for the mistake!","stimuli/35-Inongruent.jpg","z","","","","","left","z","true"
"","null","html-keyboard-response","140","2.0.0","156846","pwcpfs7mks5","smaller","lion","How the actual size of an item in real life and the size of an image of it can affect our perception","Yes, at some time during the experiment, I accidentally pressed the caps lock key so my answered for a chunk of the trials were all wrong. Sorry for the mistake!","<p>Correct!</p>","null","","","","","","",""
"","null","html-keyboard-response","141","2.0.0","157848","pwcpfs7mks5","smaller","lion","How the actual size of an item in real life and the size of an image of it can affect our perception","Yes, at some time during the experiment, I accidentally pressed the caps lock key so my answered for a chunk of the trials were all wrong. Sorry for the mistake!","<div style=""font-size:60px;"">+</div>","null","","","","","","",""
"","847","image-keyboard-response","142","2.0.0","158697","pwcpfs7mks5","smaller","lion","How the actual size of an item in real life and the size of an image of it can affect our perception","Yes, at some time during the experiment, I accidentally pressed the caps lock key so my answered for a chunk of the trials were all wrong. Sorry for the mistake!","stimuli/2-Inongruent.jpg","z","","","","","left","z","true"
"","null","html-keyboard-response","143","2.0.0","159600","pwcpfs7mks5","smaller","lion","How the actual size of an item in real life and the size of an image of it can affect our perception","Yes, at some time during the experiment, I accidentally pressed the caps lock key so my answered for a chunk of the trials were all wrong. Sorry for the mistake!","<p>Correct!</p>","null","","","","","","",""
"","null","html-keyboard-response","144","2.0.0","160602","pwcpfs7mks5","smaller","lion","How the actual size of an item in real life and the size of an image of it can affect our perception","Yes, at some time during the experiment, I accidentally pressed the caps lock key so my answered for a chunk of the trials were all wrong. Sorry for the mistake!","<div style=""font-size:60px;"">+</div>","null","","","","","","",""
"","609","image-keyboard-response","145","2.0.0","161213","pwcpfs7mks5","smaller","lion","How the actual size of an item in real life and the size of an image of it can affect our perception","Yes, at some time during the experiment, I accidentally pressed the caps lock key so my answered for a chunk of the trials were all wrong. Sorry for the mistake!","stimuli/28-Congruent.jpg","m","","","","","right","m","true"
"","null","html-keyboard-response","146","2.0.0","162115","pwcpfs7mks5","smaller","lion","How the actual size of an item in real life and the size of an image of it can affect our perception","Yes, at some time during the experiment, I accidentally pressed the caps lock key so my answered for a chunk of the trials were all wrong. Sorry for the mistake!","<p>Correct!</p>","null","","","","","","",""
"","null","html-keyboard-response","147","2.0.0","163119","pwcpfs7mks5","smaller","lion","How the actual size of an item in real life and the size of an image of it can affect our perception","Yes, at some time during the experiment, I accidentally pressed the caps lock key so my answered for a chunk of the trials were all wrong. Sorry for the mistake!","<div style=""font-size:60px;"">+</div>","null","","","","","","",""
"","777","image-keyboard-response","148","2.0.0","163898","pwcpfs7mks5","smaller","lion","How the actual size of an item in real life and the size of an image of it can affect our perception","Yes, at some time during the experiment, I accidentally pressed the caps lock key so my answered for a chunk of the trials were all wrong. Sorry for the mistake!","stimuli/29-Congruent.jpg","m","","","","","right","m","true"
"","null","html-keyboard-response","149","2.0.0","164800","pwcpfs7mks5","smaller","lion","How the actual size of an item in real life and the size of an image of it can affect our perception","Yes, at some time during the experiment, I accidentally pressed the caps lock key so my answered for a chunk of the trials were all wrong. Sorry for the mistake!","<p>Correct!</p>","null","","","","","","",""
"","null","html-keyboard-response","150","2.0.0","165802","pwcpfs7mks5","smaller","lion","How the actual size of an item in real life and the size of an image of it can affect our perception","Yes, at some time during the experiment, I accidentally pressed the caps lock key so my answered for a chunk of the trials were all wrong. Sorry for the mistake!","<div style=""font-size:60px;"">+</div>","null","","","","","","",""
"","969","image-keyboard-response","151","2.0.0","166772","pwcpfs7mks5","smaller","lion","How the actual size of an item in real life and the size of an image of it can affect our perception","Yes, at some time during the experiment, I accidentally pressed the caps lock key so my answered for a chunk of the trials were all wrong. Sorry for the mistake!","stimuli/22-Congruent.jpg","m","","","","","right","m","true"
"","null","html-keyboard-response","152","2.0.0","167675","pwcpfs7mks5","smaller","lion","How the actual size of an item in real life and the size of an image of it can affect our perception","Yes, at some time during the experiment, I accidentally pressed the caps lock key so my answered for a chunk of the trials were all wrong. Sorry for the mistake!","<p>Correct!</p>","null","","","","","","",""
"","null","html-keyboard-response","153","2.0.0","168678","pwcpfs7mks5","smaller","lion","How the actual size of an item in real life and the size of an image of it can affect our perception","Yes, at some time during the experiment, I accidentally pressed the caps lock key so my answered for a chunk of the trials were all wrong. Sorry for the mistake!","<div style=""font-size:60px;"">+</div>","null","","","","","","",""
"","788","image-keyboard-response","154","2.0.0","169467","pwcpfs7mks5","smaller","lion","How the actual size of an item in real life and the size of an image of it can affect our perception","Yes, at some time during the experiment, I accidentally pressed the caps lock key so my answered for a chunk of the trials were all wrong. Sorry for the mistake!","stimuli/32-Congruent.jpg","m","","","","","right","m","true"
"","null","html-keyboard-response","155","2.0.0","170370","pwcpfs7mks5","smaller","lion","How the actual size of an item in real life and the size of an image of it can affect our perception","Yes, at some time during the experiment, I accidentally pressed the caps lock key so my answered for a chunk of the trials were all wrong. Sorry for the mistake!","<p>Correct!</p>","null","","","","","","",""
"","null","html-keyboard-response","156","2.0.0","171373","pwcpfs7mks5","smaller","lion","How the actual size of an item in real life and the size of an image of it can affect our perception","Yes, at some time during the experiment, I accidentally pressed the caps lock key so my answered for a chunk of the trials were all wrong. Sorry for the mistake!","<div style=""font-size:60px;"">+</div>","null","","","","","","",""
"","1002","image-keyboard-response","157","2.0.0","172378","pwcpfs7mks5","smaller","lion","How the actual size of an item in real life and the size of an image of it can affect our perception","Yes, at some time during the experiment, I accidentally pressed the caps lock key so my answered for a chunk of the trials were all wrong. Sorry for the mistake!","stimuli/10-Inongruent.jpg","z","","","","","left","z","true"
"","null","html-keyboard-response","158","2.0.0","173280","pwcpfs7mks5","smaller","lion","How the actual size of an item in real life and the size of an image of it can affect our perception","Yes, at some time during the experiment, I accidentally pressed the caps lock key so my answered for a chunk of the trials were all wrong. Sorry for the mistake!","<p>Correct!</p>","null","","","","","","",""
"","null","html-keyboard-response","159","2.0.0","174283","pwcpfs7mks5","smaller","lion","How the actual size of an item in real life and the size of an image of it can affect our perception","Yes, at some time during the experiment, I accidentally pressed the caps lock key so my answered for a chunk of the trials were all wrong. Sorry for the mistake!","<div style=""font-size:60px;"">+</div>","null","","","","","","",""
"","1035","image-keyboard-response","160","2.0.0","175319","pwcpfs7mks5","smaller","lion","How the actual size of an item in real life and the size of an image of it can affect our perception","Yes, at some time during the experiment, I accidentally pressed the caps lock key so my answered for a chunk of the trials were all wrong. Sorry for the mistake!","stimuli/1-Inongruent.jpg","z","","","","","left","z","true"
"","null","html-keyboard-response","161","2.0.0","176222","pwcpfs7mks5","smaller","lion","How the actual size of an item in real life and the size of an image of it can affect our perception","Yes, at some time during the experiment, I accidentally pressed the caps lock key so my answered for a chunk of the trials were all wrong. Sorry for the mistake!","<p>Correct!</p>","null","","","","","","",""
"","null","html-keyboard-response","162","2.0.0","177225","pwcpfs7mks5","smaller","lion","How the actual size of an item in real life and the size of an image of it can affect our perception","Yes, at some time during the experiment, I accidentally pressed the caps lock key so my answered for a chunk of the trials were all wrong. Sorry for the mistake!","<div style=""font-size:60px;"">+</div>","null","","","","","","",""
"","590","image-keyboard-response","163","2.0.0","177817","pwcpfs7mks5","smaller","lion","How the actual size of an item in real life and the size of an image of it can affect our perception","Yes, at some time during the experiment, I accidentally pressed the caps lock key so my answered for a chunk of the trials were all wrong. Sorry for the mistake!","stimuli/16-Congruent.jpg","m","","","","","right","m","true"
"","null","html-keyboard-response","164","2.0.0","178719","pwcpfs7mks5","smaller","lion","How the actual size of an item in real life and the size of an image of it can affect our perception","Yes, at some time during the experiment, I accidentally pressed the caps lock key so my answered for a chunk of the trials were all wrong. Sorry for the mistake!","<p>Correct!</p>","null","","","","","","",""
"","null","html-keyboard-response","165","2.0.0","179721","pwcpfs7mks5","smaller","lion","How the actual size of an item in real life and the size of an image of it can affect our perception","Yes, at some time during the experiment, I accidentally pressed the caps lock key so my answered for a chunk of the trials were all wrong. Sorry for the mistake!","<div style=""font-size:60px;"">+</div>","null","","","","","","",""
"","503","image-keyboard-response","166","2.0.0","180227","pwcpfs7mks5","smaller","lion","How the actual size of an item in real life and the size of an image of it can affect our perception","Yes, at some time during the experiment, I accidentally pressed the caps lock key so my answered for a chunk of the trials were all wrong. Sorry for the mistake!","stimuli/2-Congruent.jpg","m","","","","","right","m","true"
"","null","html-keyboard-response","167","2.0.0","181129","pwcpfs7mks5","smaller","lion","How the actual size of an item in real life and the size of an image of it can affect our perception","Yes, at some time during the experiment, I accidentally pressed the caps lock key so my answered for a chunk of the trials were all wrong. Sorry for the mistake!","<p>Correct!</p>","null","","","","","","",""
"","null","html-keyboard-response","168","2.0.0","182132","pwcpfs7mks5","smaller","lion","How the actual size of an item in real life and the size of an image of it can affect our perception","Yes, at some time during the experiment, I accidentally pressed the caps lock key so my answered for a chunk of the trials were all wrong. Sorry for the mistake!","<div style=""font-size:60px;"">+</div>","null","","","","","","",""
"","589","image-keyboard-response","169","2.0.0","182722","pwcpfs7mks5","smaller","lion","How the actual size of an item in real life and the size of an image of it can affect our perception","Yes, at some time during the experiment, I accidentally pressed the caps lock key so my answered for a chunk of the trials were all wrong. Sorry for the mistake!","stimuli/12-Congruent.jpg","m","","","","","right","m","true"
"","null","html-keyboard-response","170","2.0.0","183625","pwcpfs7mks5","smaller","lion","How the actual size of an item in real life and the size of an image of it can affect our perception","Yes, at some time during the experiment, I accidentally pressed the caps lock key so my answered for a chunk of the trials were all wrong. Sorry for the mistake!","<p>Correct!</p>","null","","","","","","",""
"","null","html-keyboard-response","171","2.0.0","184628","pwcpfs7mks5","smaller","lion","How the actual size of an item in real life and the size of an image of it can affect our perception","Yes, at some time during the experiment, I accidentally pressed the caps lock key so my answered for a chunk of the trials were all wrong. Sorry for the mistake!","<div style=""font-size:60px;"">+</div>","null","","","","","","",""
"","864","image-keyboard-response","172","2.0.0","185494","pwcpfs7mks5","smaller","lion","How the actual size of an item in real life and the size of an image of it can affect our perception","Yes, at some time during the experiment, I accidentally pressed the caps lock key so my answered for a chunk of the trials were all wrong. Sorry for the mistake!","stimuli/26-Inongruent.jpg","z","","","","","left","z","true"
"","null","html-keyboard-response","173","2.0.0","186396","pwcpfs7mks5","smaller","lion","How the actual size of an item in real life and the size of an image of it can affect our perception","Yes, at some time during the experiment, I accidentally pressed the caps lock key so my answered for a chunk of the trials were all wrong. Sorry for the mistake!","<p>Correct!</p>","null","","","","","","",""
"","null","html-keyboard-response","174","2.0.0","187399","pwcpfs7mks5","smaller","lion","How the actual size of an item in real life and the size of an image of it can affect our perception","Yes, at some time during the experiment, I accidentally pressed the caps lock key so my answered for a chunk of the trials were all wrong. Sorry for the mistake!","<div style=""font-size:60px;"">+</div>","null","","","","","","",""
"","1125","image-keyboard-response","175","2.0.0","188526","pwcpfs7mks5","smaller","lion","How the actual size of an item in real life and the size of an image of it can affect our perception","Yes, at some time during the experiment, I accidentally pressed the caps lock key so my answered for a chunk of the trials were all wrong. Sorry for the mistake!","stimuli/11-Congruent.jpg","m","","","","","right","m","true"
"","null","html-keyboard-response","176","2.0.0","189428","pwcpfs7mks5","smaller","lion","How the actual size of an item in real life and the size of an image of it can affect our perception","Yes, at some time during the experiment, I accidentally pressed the caps lock key so my answered for a chunk of the trials were all wrong. Sorry for the mistake!","<p>Correct!</p>","null","","","","","","",""
"","null","html-keyboard-response","177","2.0.0","190431","pwcpfs7mks5","smaller","lion","How the actual size of an item in real life and the size of an image of it can affect our perception","Yes, at some time during the experiment, I accidentally pressed the caps lock key so my answered for a chunk of the trials were all wrong. Sorry for the mistake!","<div style=""font-size:60px;"">+</div>","null","","","","","","",""
"","1006","image-keyboard-response","178","2.0.0","191439","pwcpfs7mks5","smaller","lion","How the actual size of an item in real life and the size of an image of it can affect our perception","Yes, at some time during the experiment, I accidentally pressed the caps lock key so my answered for a chunk of the trials were all wrong. Sorry for the mistake!","stimuli/30-Congruent.jpg","m","","","","","right","m","true"
"","null","html-keyboard-response","179","2.0.0","192341","pwcpfs7mks5","smaller","lion","How the actual size of an item in real life and the size of an image of it can affect our perception","Yes, at some time during the experiment, I accidentally pressed the caps lock key so my answered for a chunk of the trials were all wrong. Sorry for the mistake!","<p>Correct!</p>","null","","","","","","",""
"","null","html-keyboard-response","180","2.0.0","193343","pwcpfs7mks5","smaller","lion","How the actual size of an item in real life and the size of an image of it can affect our perception","Yes, at some time during the experiment, I accidentally pressed the caps lock key so my answered for a chunk of the trials were all wrong. Sorry for the mistake!","<div style=""font-size:60px;"">+</div>","null","","","","","","",""
"","1461","image-keyboard-response","181","2.0.0","194806","pwcpfs7mks5","smaller","lion","How the actual size of an item in real life and the size of an image of it can affect our perception","Yes, at some time during the experiment, I accidentally pressed the caps lock key so my answered for a chunk of the trials were all wrong. Sorry for the mistake!","stimuli/8-Inongruent.jpg","z","","","","","left","z","true"
"","null","html-keyboard-response","182","2.0.0","195709","pwcpfs7mks5","smaller","lion","How the actual size of an item in real life and the size of an image of it can affect our perception","Yes, at some time during the experiment, I accidentally pressed the caps lock key so my answered for a chunk of the trials were all wrong. Sorry for the mistake!","<p>Correct!</p>","null","","","","","","",""
"","null","html-keyboard-response","183","2.0.0","196711","pwcpfs7mks5","smaller","lion","How the actual size of an item in real life and the size of an image of it can affect our perception","Yes, at some time during the experiment, I accidentally pressed the caps lock key so my answered for a chunk of the trials were all wrong. Sorry for the mistake!","<div style=""font-size:60px;"">+</div>","null","","","","","","",""
"","981","image-keyboard-response","184","2.0.0","197694","pwcpfs7mks5","smaller","lion","How the actual size of an item in real life and the size of an image of it can affect our perception","Yes, at some time during the experiment, I accidentally pressed the caps lock key so my answered for a chunk of the trials were all wrong. Sorry for the mistake!","stimuli/1-Congruent.jpg","m","","","","","right","m","true"
"","null","html-keyboard-response","185","2.0.0","198596","pwcpfs7mks5","smaller","lion","How the actual size of an item in real life and the size of an image of it can affect our perception","Yes, at some time during the experiment, I accidentally pressed the caps lock key so my answered for a chunk of the trials were all wrong. Sorry for the mistake!","<p>Correct!</p>","null","","","","","","",""
"","null","html-keyboard-response","186","2.0.0","199598","pwcpfs7mks5","smaller","lion","How the actual size of an item in real life and the size of an image of it can affect our perception","Yes, at some time during the experiment, I accidentally pressed the caps lock key so my answered for a chunk of the trials were all wrong. Sorry for the mistake!","<div style=""font-size:60px;"">+</div>","null","","","","","","",""
"","988","image-keyboard-response","187","2.0.0","200587","pwcpfs7mks5","smaller","lion","How the actual size of an item in real life and the size of an image of it can affect our perception","Yes, at some time during the experiment, I accidentally pressed the caps lock key so my answered for a chunk of the trials were all wrong. Sorry for the mistake!","stimuli/35-Congruent.jpg","m","","","","","right","m","true"
"","null","html-keyboard-response","188","2.0.0","201489","pwcpfs7mks5","smaller","lion","How the actual size of an item in real life and the size of an image of it can affect our perception","Yes, at some time during the experiment, I accidentally pressed the caps lock key so my answered for a chunk of the trials were all wrong. Sorry for the mistake!","<p>Correct!</p>","null","","","","","","",""
"","null","html-keyboard-response","189","2.0.0","202491","pwcpfs7mks5","smaller","lion","How the actual size of an item in real life and the size of an image of it can affect our perception","Yes, at some time during the experiment, I accidentally pressed the caps lock key so my answered for a chunk of the trials were all wrong. Sorry for the mistake!","<div style=""font-size:60px;"">+</div>","null","","","","","","",""
"","1165","image-keyboard-response","190","2.0.0","203658","pwcpfs7mks5","smaller","lion","How the actual size of an item in real life and the size of an image of it can affect our perception","Yes, at some time during the experiment, I accidentally pressed the caps lock key so my answered for a chunk of the trials were all wrong. Sorry for the mistake!","stimuli/11-Congruent.jpg","m","","","","","right","m","true"
"","null","html-keyboard-response","191","2.0.0","204560","pwcpfs7mks5","smaller","lion","How the actual size of an item in real life and the size of an image of it can affect our perception","Yes, at some time during the experiment, I accidentally pressed the caps lock key so my answered for a chunk of the trials were all wrong. Sorry for the mistake!","<p>Correct!</p>","null","","","","","","",""
"","null","html-keyboard-response","192","2.0.0","205562","pwcpfs7mks5","smaller","lion","How the actual size of an item in real life and the size of an image of it can affect our perception","Yes, at some time during the experiment, I accidentally pressed the caps lock key so my answered for a chunk of the trials were all wrong. Sorry for the mistake!","<div style=""font-size:60px;"">+</div>","null","","","","","","",""
"","1148","image-keyboard-response","193","2.0.0","206712","pwcpfs7mks5","smaller","lion","How the actual size of an item in real life and the size of an image of it can affect our perception","Yes, at some time during the experiment, I accidentally pressed the caps lock key so my answered for a chunk of the trials were all wrong. Sorry for the mistake!","stimuli/16-Inongruent.jpg","z","","","","","left","z","true"
"","null","html-keyboard-response","194","2.0.0","207615","pwcpfs7mks5","smaller","lion","How the actual size of an item in real life and the size of an image of it can affect our perception","Yes, at some time during the experiment, I accidentally pressed the caps lock key so my answered for a chunk of the trials were all wrong. Sorry for the mistake!","<p>Correct!</p>","null","","","","","","",""
"","null","html-keyboard-response","195","2.0.0","208617","pwcpfs7mks5","smaller","lion","How the actual size of an item in real life and the size of an image of it can affect our perception","Yes, at some time during the experiment, I accidentally pressed the caps lock key so my answered for a chunk of the trials were all wrong. Sorry for the mistake!","<div style=""font-size:60px;"">+</div>","null","","","","","","",""
"","752","image-keyboard-response","196","2.0.0","209371","pwcpfs7mks5","smaller","lion","How the actual size of an item in real life and the size of an image of it can affect our perception","Yes, at some time during the experiment, I accidentally pressed the caps lock key so my answered for a chunk of the trials were all wrong. Sorry for the mistake!","stimuli/7-Inongruent.jpg","z","","","","","left","z","true"
"","null","html-keyboard-response","197","2.0.0","210274","pwcpfs7mks5","smaller","lion","How the actual size of an item in real life and the size of an image of it can affect our perception","Yes, at some time during the experiment, I accidentally pressed the caps lock key so my answered for a chunk of the trials were all wrong. Sorry for the mistake!","<p>Correct!</p>","null","","","","","","",""
"","null","html-keyboard-response","198","2.0.0","211277","pwcpfs7mks5","smaller","lion","How the actual size of an item in real life and the size of an image of it can affect our perception","Yes, at some time during the experiment, I accidentally pressed the caps lock key so my answered for a chunk of the trials were all wrong. Sorry for the mistake!","<div style=""font-size:60px;"">+</div>","null","","","","","","",""
"","854","image-keyboard-response","199","2.0.0","212132","pwcpfs7mks5","smaller","lion","How the actual size of an item in real life and the size of an image of it can affect our perception","Yes, at some time during the experiment, I accidentally pressed the caps lock key so my answered for a chunk of the trials were all wrong. Sorry for the mistake!","stimuli/10-Inongruent.jpg","z","","","","","left","z","true"
"","null","html-keyboard-response","200","2.0.0","213034","pwcpfs7mks5","smaller","lion","How the actual size of an item in real life and the size of an image of it can affect our perception","Yes, at some time during the experiment, I accidentally pressed the caps lock key so my answered for a chunk of the trials were all wrong. Sorry for the mistake!","<p>Correct!</p>","null","","","","","","",""
"","null","html-keyboard-response","201","2.0.0","214037","pwcpfs7mks5","smaller","lion","How the actual size of an item in real life and the size of an image of it can affect our perception","Yes, at some time during the experiment, I accidentally pressed the caps lock key so my answered for a chunk of the trials were all wrong. Sorry for the mistake!","<div style=""font-size:60px;"">+</div>","null","","","","","","",""
"","548","image-keyboard-response","202","2.0.0","214587","pwcpfs7mks5","smaller","lion","How the actual size of an item in real life and the size of an image of it can affect our perception","Yes, at some time during the experiment, I accidentally pressed the caps lock key so my answered for a chunk of the trials were all wrong. Sorry for the mistake!","stimuli/36-Congruent.jpg","m","","","","","right","m","true"
"","null","html-keyboard-response","203","2.0.0","215489","pwcpfs7mks5","smaller","lion","How the actual size of an item in real life and the size of an image of it can affect our perception","Yes, at some time during the experiment, I accidentally pressed the caps lock key so my answered for a chunk of the trials were all wrong. Sorry for the mistake!","<p>Correct!</p>","null","","","","","","",""
"","null","html-keyboard-response","204","2.0.0","216492","pwcpfs7mks5","smaller","lion","How the actual size of an item in real life and the size of an image of it can affect our perception","Yes, at some time during the experiment, I accidentally pressed the caps lock key so my answered for a chunk of the trials were all wrong. Sorry for the mistake!","<div style=""font-size:60px;"">+</div>","null","","","","","","",""
"","754","image-keyboard-response","205","2.0.0","217249","pwcpfs7mks5","smaller","lion","How the actual size of an item in real life and the size of an image of it can affect our perception","Yes, at some time during the experiment, I accidentally pressed the caps lock key so my answered for a chunk of the trials were all wrong. Sorry for the mistake!","stimuli/13-Congruent.jpg","m","","","","","right","m","true"
"","null","html-keyboard-response","206","2.0.0","218152","pwcpfs7mks5","smaller","lion","How the actual size of an item in real life and the size of an image of it can affect our perception","Yes, at some time during the experiment, I accidentally pressed the caps lock key so my answered for a chunk of the trials were all wrong. Sorry for the mistake!","<p>Correct!</p>","null","","","","","","",""
"","null","html-keyboard-response","207","2.0.0","219154","pwcpfs7mks5","smaller","lion","How the actual size of an item in real life and the size of an image of it can affect our perception","Yes, at some time during the experiment, I accidentally pressed the caps lock key so my answered for a chunk of the trials were all wrong. Sorry for the mistake!","<div style=""font-size:60px;"">+</div>","null","","","","","","",""
"","663","image-keyboard-response","208","2.0.0","219818","pwcpfs7mks5","smaller","lion","How the actual size of an item in real life and the size of an image of it can affect our perception","Yes, at some time during the experiment, I accidentally pressed the caps lock key so my answered for a chunk of the trials were all wrong. Sorry for the mistake!","stimuli/17-Inongruent.jpg","z","","","","","left","z","true"
"","null","html-keyboard-response","209","2.0.0","220720","pwcpfs7mks5","smaller","lion","How the actual size of an item in real life and the size of an image of it can affect our perception","Yes, at some time during the experiment, I accidentally pressed the caps lock key so my answered for a chunk of the trials were all wrong. Sorry for the mistake!","<p>Correct!</p>","null","","","","","","",""
"","null","html-keyboard-response","210","2.0.0","221723","pwcpfs7mks5","smaller","lion","How the actual size of an item in real life and the size of an image of it can affect our perception","Yes, at some time during the experiment, I accidentally pressed the caps lock key so my answered for a chunk of the trials were all wrong. Sorry for the mistake!","<div style=""font-size:60px;"">+</div>","null","","","","","","",""
"","500","image-keyboard-response","211","2.0.0","222225","pwcpfs7mks5","smaller","lion","How the actual size of an item in real life and the size of an image of it can affect our perception","Yes, at some time during the experiment, I accidentally pressed the caps lock key so my answered for a chunk of the trials were all wrong. Sorry for the mistake!","stimuli/5-Congruent.jpg","m","","","","","right","m","true"
"","null","html-keyboard-response","212","2.0.0","223127","pwcpfs7mks5","smaller","lion","How the actual size of an item in real life and the size of an image of it can affect our perception","Yes, at some time during the experiment, I accidentally pressed the caps lock key so my answered for a chunk of the trials were all wrong. Sorry for the mistake!","<p>Correct!</p>","null","","","","","","",""
"","null","html-keyboard-response","213","2.0.0","224129","pwcpfs7mks5","smaller","lion","How the actual size of an item in real life and the size of an image of it can affect our perception","Yes, at some time during the experiment, I accidentally pressed the caps lock key so my answered for a chunk of the trials were all wrong. Sorry for the mistake!","<div style=""font-size:60px;"">+</div>","null","","","","","","",""
"","515","image-keyboard-response","214","2.0.0","224646","pwcpfs7mks5","smaller","lion","How the actual size of an item in real life and the size of an image of it can affect our perception","Yes, at some time during the experiment, I accidentally pressed the caps lock key so my answered for a chunk of the trials were all wrong. Sorry for the mistake!","stimuli/26-Inongruent.jpg","z","","","","","left","z","true"
"","null","html-keyboard-response","215","2.0.0","225548","pwcpfs7mks5","smaller","lion","How the actual size of an item in real life and the size of an image of it can affect our perception","Yes, at some time during the experiment, I accidentally pressed the caps lock key so my answered for a chunk of the trials were all wrong. Sorry for the mistake!","<p>Correct!</p>","null","","","","","","",""
"","null","html-keyboard-response","216","2.0.0","226550","pwcpfs7mks5","smaller","lion","How the actual size of an item in real life and the size of an image of it can affect our perception","Yes, at some time during the experiment, I accidentally pressed the caps lock key so my answered for a chunk of the trials were all wrong. Sorry for the mistake!","<div style=""font-size:60px;"">+</div>","null","","","","","","",""
"","430","image-keyboard-response","217","2.0.0","226982","pwcpfs7mks5","smaller","lion","How the actual size of an item in real life and the size of an image of it can affect our perception","Yes, at some time during the experiment, I accidentally pressed the caps lock key so my answered for a chunk of the trials were all wrong. Sorry for the mistake!","stimuli/18-Congruent.jpg","m","","","","","right","m","true"
"","null","html-keyboard-response","218","2.0.0","227884","pwcpfs7mks5","smaller","lion","How the actual size of an item in real life and the size of an image of it can affect our perception","Yes, at some time during the experiment, I accidentally pressed the caps lock key so my answered for a chunk of the trials were all wrong. Sorry for the mistake!","<p>Correct!</p>","null","","","","","","",""
"","null","html-keyboard-response","219","2.0.0","228887","pwcpfs7mks5","smaller","lion","How the actual size of an item in real life and the size of an image of it can affect our perception","Yes, at some time during the experiment, I accidentally pressed the caps lock key so my answered for a chunk of the trials were all wrong. Sorry for the mistake!","<div style=""font-size:60px;"">+</div>","null","","","","","","",""
"","526","image-keyboard-response","220","2.0.0","229415","pwcpfs7mks5","smaller","lion","How the actual size of an item in real life and the size of an image of it can affect our perception","Yes, at some time during the experiment, I accidentally pressed the caps lock key so my answered for a chunk of the trials were all wrong. Sorry for the mistake!","stimuli/22-Inongruent.jpg","z","","","","","left","z","true"
"","null","html-keyboard-response","221","2.0.0","230316","pwcpfs7mks5","smaller","lion","How the actual size of an item in real life and the size of an image of it can affect our perception","Yes, at some time during the experiment, I accidentally pressed the caps lock key so my answered for a chunk of the trials were all wrong. Sorry for the mistake!","<p>Correct!</p>","null","","","","","","",""
"","null","html-keyboard-response","222","2.0.0","231321","pwcpfs7mks5","smaller","lion","How the actual size of an item in real life and the size of an image of it can affect our perception","Yes, at some time during the experiment, I accidentally pressed the caps lock key so my answered for a chunk of the trials were all wrong. Sorry for the mistake!","<div style=""font-size:60px;"">+</div>","null","","","","","","",""
"","784","image-keyboard-response","223","2.0.0","232108","pwcpfs7mks5","smaller","lion","How the actual size of an item in real life and the size of an image of it can affect our perception","Yes, at some time during the experiment, I accidentally pressed the caps lock key so my answered for a chunk of the trials were all wrong. Sorry for the mistake!","stimuli/19-Inongruent.jpg","z","","","","","left","z","true"
"","null","html-keyboard-response","224","2.0.0","233009","pwcpfs7mks5","smaller","lion","How the actual size of an item in real life and the size of an image of it can affect our perception","Yes, at some time during the experiment, I accidentally pressed the caps lock key so my answered for a chunk of the trials were all wrong. Sorry for the mistake!","<p>Correct!</p>","null","","","","","","",""
"","null","html-keyboard-response","225","2.0.0","234012","pwcpfs7mks5","smaller","lion","How the actual size of an item in real life and the size of an image of it can affect our perception","Yes, at some time during the experiment, I accidentally pressed the caps lock key so my answered for a chunk of the trials were all wrong. Sorry for the mistake!","<div style=""font-size:60px;"">+</div>","null","","","","","","",""
"","884","image-keyboard-response","226","2.0.0","234899","pwcpfs7mks5","smaller","lion","How the actual size of an item in real life and the size of an image of it can affect our perception","Yes, at some time during the experiment, I accidentally pressed the caps lock key so my answered for a chunk of the trials were all wrong. Sorry for the mistake!","stimuli/28-Inongruent.jpg","z","","","","","left","z","true"
"","null","html-keyboard-response","227","2.0.0","235801","pwcpfs7mks5","smaller","lion","How the actual size of an item in real life and the size of an image of it can affect our perception","Yes, at some time during the experiment, I accidentally pressed the caps lock key so my answered for a chunk of the trials were all wrong. Sorry for the mistake!","<p>Correct!</p>","null","","","","","","",""
"","null","html-keyboard-response","228","2.0.0","236804","pwcpfs7mks5","smaller","lion","How the actual size of an item in real life and the size of an image of it can affect our perception","Yes, at some time during the experiment, I accidentally pressed the caps lock key so my answered for a chunk of the trials were all wrong. Sorry for the mistake!","<div style=""font-size:60px;"">+</div>","null","","","","","","",""
"","554","image-keyboard-response","229","2.0.0","237360","pwcpfs7mks5","smaller","lion","How the actual size of an item in real life and the size of an image of it can affect our perception","Yes, at some time during the experiment, I accidentally pressed the caps lock key so my answered for a chunk of the trials were all wrong. Sorry for the mistake!","stimuli/4-Congruent.jpg","m","","","","","right","m","true"
"","null","html-keyboard-response","230","2.0.0","238262","pwcpfs7mks5","smaller","lion","How the actual size of an item in real life and the size of an image of it can affect our perception","Yes, at some time during the experiment, I accidentally pressed the caps lock key so my answered for a chunk of the trials were all wrong. Sorry for the mistake!","<p>Correct!</p>","null","","","","","","",""
"","null","html-keyboard-response","231","2.0.0","239265","pwcpfs7mks5","smaller","lion","How the actual size of an item in real life and the size of an image of it can affect our perception","Yes, at some time during the experiment, I accidentally pressed the caps lock key so my answered for a chunk of the trials were all wrong. Sorry for the mistake!","<div style=""font-size:60px;"">+</div>","null","","","","","","",""
"","605","image-keyboard-response","232","2.0.0","239872","pwcpfs7mks5","smaller","lion","How the actual size of an item in real life and the size of an image of it can affect our perception","Yes, at some time during the experiment, I accidentally pressed the caps lock key so my answered for a chunk of the trials were all wrong. Sorry for the mistake!","stimuli/35-Congruent.jpg","m","","","","","right","m","true"
"","null","html-keyboard-response","233","2.0.0","240774","pwcpfs7mks5","smaller","lion","How the actual size of an item in real life and the size of an image of it can affect our perception","Yes, at some time during the experiment, I accidentally pressed the caps lock key so my answered for a chunk of the trials were all wrong. Sorry for the mistake!","<p>Correct!</p>","null","","","","","","",""
"","null","html-keyboard-response","234","2.0.0","241776","pwcpfs7mks5","smaller","lion","How the actual size of an item in real life and the size of an image of it can affect our perception","Yes, at some time during the experiment, I accidentally pressed the caps lock key so my answered for a chunk of the trials were all wrong. Sorry for the mistake!","<div style=""font-size:60px;"">+</div>","null","","","","","","",""
"","643","image-keyboard-response","235","2.0.0","242421","pwcpfs7mks5","smaller","lion","How the actual size of an item in real life and the size of an image of it can affect our perception","Yes, at some time during the experiment, I accidentally pressed the caps lock key so my answered for a chunk of the trials were all wrong. Sorry for the mistake!","stimuli/31-Congruent.jpg","m","","","","","right","m","true"
"","null","html-keyboard-response","236","2.0.0","243323","pwcpfs7mks5","smaller","lion","How the actual size of an item in real life and the size of an image of it can affect our perception","Yes, at some time during the experiment, I accidentally pressed the caps lock key so my answered for a chunk of the trials were all wrong. Sorry for the mistake!","<p>Correct!</p>","null","","","","","","",""
"","null","html-keyboard-response","237","2.0.0","244325","pwcpfs7mks5","smaller","lion","How the actual size of an item in real life and the size of an image of it can affect our perception","Yes, at some time during the experiment, I accidentally pressed the caps lock key so my answered for a chunk of the trials were all wrong. Sorry for the mistake!","<div style=""font-size:60px;"">+</div>","null","","","","","","",""
"","567","image-keyboard-response","238","2.0.0","244895","pwcpfs7mks5","smaller","lion","How the actual size of an item in real life and the size of an image of it can affect our perception","Yes, at some time during the experiment, I accidentally pressed the caps lock key so my answered for a chunk of the trials were all wrong. Sorry for the mistake!","stimuli/25-Inongruent.jpg","z","","","","","left","z","true"
