"success","rt","trial_type","trial_index","plugin_version","time_elapsed","random_id","condition","participant","participant_thoughts","participant_difficulties","stimulus","response","timeout","failed_images","failed_audio","failed_video","correct_response","correct_response_key","correct"
"true","4868","fullscreen","0","null","5881","pwka4tvygb7","bigger","gazelle","disability","no","","","","","","","","",""
"","4562","html-keyboard-response","1","2.0.0","10443","pwka4tvygb7","bigger","gazelle","disability","no","Welcome to the Size Stroop experiment. Press any key to begin."," ","","","","","","",""
"","null","html-keyboard-response","2","2.0.0","11450","pwka4tvygb7","bigger","gazelle","disability","no","This trial will be in fullscreen mode.","null","","","","","","",""
"","2912","survey-text","3","2.0.0","14365","pwka4tvygb7","bigger","gazelle","disability","no","","{""participant_id"":""gazelle""}","","","","","","",""
"","1151194","html-keyboard-response","4","2.0.0","1165543","pwka4tvygb7","bigger","gazelle","disability","no","<p>In this experiment, two images will appear on the screen. Identify the <strong>larger</strong> images.</p>
              <p>If the image on the left is larger, press ""z"". If the image on the right is larger, press ""m"".</p>
              <p>Press any key to begin.</p>"," ","","","","","","",""
"true","","preload","5","2.0.0","1165879","pwka4tvygb7","bigger","gazelle","disability","no","","","false","[]","[]","[]","","",""
"","null","html-keyboard-response","6","2.0.0","1166894","pwka4tvygb7","bigger","gazelle","disability","no","<div style=""font-size:60px;"">+</div>","null","","","","","","",""
"","720","image-keyboard-response","7","2.0.0","1167616","pwka4tvygb7","bigger","gazelle","disability","no","stimuli/33-Congruent.jpg","z","","","","","left","z","true"
"","null","html-keyboard-response","8","2.0.0","1168532","pwka4tvygb7","bigger","gazelle","disability","no","<p>Correct!</p>","null","","","","","","",""
"","null","html-keyboard-response","9","2.0.0","1169537","pwka4tvygb7","bigger","gazelle","disability","no","<div style=""font-size:60px;"">+</div>","null","","","","","","",""
"","513","image-keyboard-response","10","2.0.0","1170050","pwka4tvygb7","bigger","gazelle","disability","no","stimuli/26-Congruent.jpg","z","","","","","left","z","true"
"","null","html-keyboard-response","11","2.0.0","1170963","pwka4tvygb7","bigger","gazelle","disability","no","<p>Correct!</p>","null","","","","","","",""
"","null","html-keyboard-response","12","2.0.0","1171977","pwka4tvygb7","bigger","gazelle","disability","no","<div style=""font-size:60px;"">+</div>","null","","","","","","",""
"","481","image-keyboard-response","13","2.0.0","1172459","pwka4tvygb7","bigger","gazelle","disability","no","stimuli/14-Congruent.jpg","z","","","","","left","z","true"
"","null","html-keyboard-response","14","2.0.0","1173370","pwka4tvygb7","bigger","gazelle","disability","no","<p>Correct!</p>","null","","","","","","",""
"","null","html-keyboard-response","15","2.0.0","1174385","pwka4tvygb7","bigger","gazelle","disability","no","<div style=""font-size:60px;"">+</div>","null","","","","","","",""
"","512","image-keyboard-response","16","2.0.0","1174897","pwka4tvygb7","bigger","gazelle","disability","no","stimuli/13-Inongruent.jpg","m","","","","","right","m","true"
"","null","html-keyboard-response","17","2.0.0","1175812","pwka4tvygb7","bigger","gazelle","disability","no","<p>Correct!</p>","null","","","","","","",""
"","null","html-keyboard-response","18","2.0.0","1176819","pwka4tvygb7","bigger","gazelle","disability","no","<div style=""font-size:60px;"">+</div>","null","","","","","","",""
"","660","image-keyboard-response","19","2.0.0","1177480","pwka4tvygb7","bigger","gazelle","disability","no","stimuli/26-Congruent.jpg","z","","","","","left","z","true"
"","null","html-keyboard-response","20","2.0.0","1178387","pwka4tvygb7","bigger","gazelle","disability","no","<p>Correct!</p>","null","","","","","","",""
"","null","html-keyboard-response","21","2.0.0","1179392","pwka4tvygb7","bigger","gazelle","disability","no","<div style=""font-size:60px;"">+</div>","null","","","","","","",""
"","359","image-keyboard-response","22","2.0.0","1179751","pwka4tvygb7","bigger","gazelle","disability","no","stimuli/23-Inongruent.jpg","m","","","","","right","m","true"
"","null","html-keyboard-response","23","2.0.0","1180660","pwka4tvygb7","bigger","gazelle","disability","no","<p>Correct!</p>","null","","","","","","",""
"","null","html-keyboard-response","24","2.0.0","1181675","pwka4tvygb7","bigger","gazelle","disability","no","<div style=""font-size:60px;"">+</div>","null","","","","","","",""
"","662","image-keyboard-response","25","2.0.0","1182338","pwka4tvygb7","bigger","gazelle","disability","no","stimuli/21-Inongruent.jpg","z","","","","","right","m","false"
"","162","html-keyboard-response","26","2.0.0","1182500","pwka4tvygb7","bigger","gazelle","disability","no","<p>Incorrect.</p><p>Remember to select the <b>bigger</b> image.</p><p>Continuing in 5 seconds...</p>","m","","","","","","",""
"","null","html-keyboard-response","27","2.0.0","1183515","pwka4tvygb7","bigger","gazelle","disability","no","<div style=""font-size:60px;"">+</div>","null","","","","","","",""
"","567","image-keyboard-response","28","2.0.0","1184083","pwka4tvygb7","bigger","gazelle","disability","no","stimuli/31-Congruent.jpg","z","","","","","left","z","true"
"","null","html-keyboard-response","29","2.0.0","1184999","pwka4tvygb7","bigger","gazelle","disability","no","<p>Correct!</p>","null","","","","","","",""
"","null","html-keyboard-response","30","2.0.0","1186006","pwka4tvygb7","bigger","gazelle","disability","no","<div style=""font-size:60px;"">+</div>","null","","","","","","",""
"","571","image-keyboard-response","31","2.0.0","1186577","pwka4tvygb7","bigger","gazelle","disability","no","stimuli/11-Congruent.jpg","z","","","","","left","z","true"
"","null","html-keyboard-response","32","2.0.0","1187490","pwka4tvygb7","bigger","gazelle","disability","no","<p>Correct!</p>","null","","","","","","",""
"","null","html-keyboard-response","33","2.0.0","1188500","pwka4tvygb7","bigger","gazelle","disability","no","<div style=""font-size:60px;"">+</div>","null","","","","","","",""
"","458","image-keyboard-response","34","2.0.0","1188958","pwka4tvygb7","bigger","gazelle","disability","no","stimuli/30-Inongruent.jpg","m","","","","","right","m","true"
"","null","html-keyboard-response","35","2.0.0","1189864","pwka4tvygb7","bigger","gazelle","disability","no","<p>Correct!</p>","null","","","","","","",""
"","null","html-keyboard-response","36","2.0.0","1190869","pwka4tvygb7","bigger","gazelle","disability","no","<div style=""font-size:60px;"">+</div>","null","","","","","","",""
"","459","image-keyboard-response","37","2.0.0","1191328","pwka4tvygb7","bigger","gazelle","disability","no","stimuli/4-Inongruent.jpg","m","","","","","right","m","true"
"","null","html-keyboard-response","38","2.0.0","1192236","pwka4tvygb7","bigger","gazelle","disability","no","<p>Correct!</p>","null","","","","","","",""
"","null","html-keyboard-response","39","2.0.0","1193248","pwka4tvygb7","bigger","gazelle","disability","no","<div style=""font-size:60px;"">+</div>","null","","","","","","",""
"","410","image-keyboard-response","40","2.0.0","1193659","pwka4tvygb7","bigger","gazelle","disability","no","stimuli/9-Congruent.jpg","z","","","","","left","z","true"
"","null","html-keyboard-response","41","2.0.0","1194573","pwka4tvygb7","bigger","gazelle","disability","no","<p>Correct!</p>","null","","","","","","",""
"","null","html-keyboard-response","42","2.0.0","1195589","pwka4tvygb7","bigger","gazelle","disability","no","<div style=""font-size:60px;"">+</div>","null","","","","","","",""
"","480","image-keyboard-response","43","2.0.0","1196069","pwka4tvygb7","bigger","gazelle","disability","no","stimuli/15-Congruent.jpg","z","","","","","left","z","true"
"","null","html-keyboard-response","44","2.0.0","1196976","pwka4tvygb7","bigger","gazelle","disability","no","<p>Correct!</p>","null","","","","","","",""
"","null","html-keyboard-response","45","2.0.0","1197990","pwka4tvygb7","bigger","gazelle","disability","no","<div style=""font-size:60px;"">+</div>","null","","","","","","",""
"","422","image-keyboard-response","46","2.0.0","1198413","pwka4tvygb7","bigger","gazelle","disability","no","stimuli/18-Inongruent.jpg","m","","","","","right","m","true"
"","null","html-keyboard-response","47","2.0.0","1199317","pwka4tvygb7","bigger","gazelle","disability","no","<p>Correct!</p>","null","","","","","","",""
"","null","html-keyboard-response","48","2.0.0","1200323","pwka4tvygb7","bigger","gazelle","disability","no","<div style=""font-size:60px;"">+</div>","null","","","","","","",""
"","422","image-keyboard-response","49","2.0.0","1200745","pwka4tvygb7","bigger","gazelle","disability","no","stimuli/30-Congruent.jpg","z","","","","","left","z","true"
"","null","html-keyboard-response","50","2.0.0","1201650","pwka4tvygb7","bigger","gazelle","disability","no","<p>Correct!</p>","null","","","","","","",""
"","null","html-keyboard-response","51","2.0.0","1202665","pwka4tvygb7","bigger","gazelle","disability","no","<div style=""font-size:60px;"">+</div>","null","","","","","","",""
"","767","image-keyboard-response","52","2.0.0","1203432","pwka4tvygb7","bigger","gazelle","disability","no","stimuli/23-Congruent.jpg","z","","","","","left","z","true"
"","null","html-keyboard-response","53","2.0.0","1204337","pwka4tvygb7","bigger","gazelle","disability","no","<p>Correct!</p>","null","","","","","","",""
"","null","html-keyboard-response","54","2.0.0","1205348","pwka4tvygb7","bigger","gazelle","disability","no","<div style=""font-size:60px;"">+</div>","null","","","","","","",""
"","679","image-keyboard-response","55","2.0.0","1206027","pwka4tvygb7","bigger","gazelle","disability","no","stimuli/19-Congruent.jpg","z","","","","","left","z","true"
"","null","html-keyboard-response","56","2.0.0","1206939","pwka4tvygb7","bigger","gazelle","disability","no","<p>Correct!</p>","null","","","","","","",""
"","null","html-keyboard-response","57","2.0.0","1207953","pwka4tvygb7","bigger","gazelle","disability","no","<div style=""font-size:60px;"">+</div>","null","","","","","","",""
"","503","image-keyboard-response","58","2.0.0","1208456","pwka4tvygb7","bigger","gazelle","disability","no","stimuli/18-Inongruent.jpg","m","","","","","right","m","true"
"","null","html-keyboard-response","59","2.0.0","1209372","pwka4tvygb7","bigger","gazelle","disability","no","<p>Correct!</p>","null","","","","","","",""
"","null","html-keyboard-response","60","2.0.0","1210378","pwka4tvygb7","bigger","gazelle","disability","no","<div style=""font-size:60px;"">+</div>","null","","","","","","",""
"","723","image-keyboard-response","61","2.0.0","1211101","pwka4tvygb7","bigger","gazelle","disability","no","stimuli/24-Congruent.jpg","z","","","","","left","z","true"
"","null","html-keyboard-response","62","2.0.0","1212003","pwka4tvygb7","bigger","gazelle","disability","no","<p>Correct!</p>","null","","","","","","",""
"","null","html-keyboard-response","63","2.0.0","1213004","pwka4tvygb7","bigger","gazelle","disability","no","<div style=""font-size:60px;"">+</div>","null","","","","","","",""
"","407","image-keyboard-response","64","2.0.0","1213411","pwka4tvygb7","bigger","gazelle","disability","no","stimuli/10-Congruent.jpg","z","","","","","left","z","true"
"","null","html-keyboard-response","65","2.0.0","1214316","pwka4tvygb7","bigger","gazelle","disability","no","<p>Correct!</p>","null","","","","","","",""
"","null","html-keyboard-response","66","2.0.0","1215317","pwka4tvygb7","bigger","gazelle","disability","no","<div style=""font-size:60px;"">+</div>","null","","","","","","",""
"","603","image-keyboard-response","67","2.0.0","1215921","pwka4tvygb7","bigger","gazelle","disability","no","stimuli/27-Inongruent.jpg","m","","","","","right","m","true"
"","null","html-keyboard-response","68","2.0.0","1216834","pwka4tvygb7","bigger","gazelle","disability","no","<p>Correct!</p>","null","","","","","","",""
"","null","html-keyboard-response","69","2.0.0","1217843","pwka4tvygb7","bigger","gazelle","disability","no","<div style=""font-size:60px;"">+</div>","null","","","","","","",""
"","405","image-keyboard-response","70","2.0.0","1218248","pwka4tvygb7","bigger","gazelle","disability","no","stimuli/6-Congruent.jpg","z","","","","","left","z","true"
"","null","html-keyboard-response","71","2.0.0","1219151","pwka4tvygb7","bigger","gazelle","disability","no","<p>Correct!</p>","null","","","","","","",""
"","null","html-keyboard-response","72","2.0.0","1220165","pwka4tvygb7","bigger","gazelle","disability","no","<div style=""font-size:60px;"">+</div>","null","","","","","","",""
"","426","image-keyboard-response","73","2.0.0","1220591","pwka4tvygb7","bigger","gazelle","disability","no","stimuli/35-Congruent.jpg","z","","","","","left","z","true"
"","null","html-keyboard-response","74","2.0.0","1221494","pwka4tvygb7","bigger","gazelle","disability","no","<p>Correct!</p>","null","","","","","","",""
"","null","html-keyboard-response","75","2.0.0","1222506","pwka4tvygb7","bigger","gazelle","disability","no","<div style=""font-size:60px;"">+</div>","null","","","","","","",""
"","411","image-keyboard-response","76","2.0.0","1222918","pwka4tvygb7","bigger","gazelle","disability","no","stimuli/28-Congruent.jpg","z","","","","","left","z","true"
"","null","html-keyboard-response","77","2.0.0","1223832","pwka4tvygb7","bigger","gazelle","disability","no","<p>Correct!</p>","null","","","","","","",""
"","null","html-keyboard-response","78","2.0.0","1224843","pwka4tvygb7","bigger","gazelle","disability","no","<div style=""font-size:60px;"">+</div>","null","","","","","","",""
"","622","image-keyboard-response","79","2.0.0","1225466","pwka4tvygb7","bigger","gazelle","disability","no","stimuli/35-Inongruent.jpg","m","","","","","right","m","true"
"","null","html-keyboard-response","80","2.0.0","1226369","pwka4tvygb7","bigger","gazelle","disability","no","<p>Correct!</p>","null","","","","","","",""
"","null","html-keyboard-response","81","2.0.0","1227370","pwka4tvygb7","bigger","gazelle","disability","no","<div style=""font-size:60px;"">+</div>","null","","","","","","",""
"","887","image-keyboard-response","82","2.0.0","1228257","pwka4tvygb7","bigger","gazelle","disability","no","stimuli/8-Inongruent.jpg","m","","","","","right","m","true"
"","null","html-keyboard-response","83","2.0.0","1229167","pwka4tvygb7","bigger","gazelle","disability","no","<p>Correct!</p>","null","","","","","","",""
"","null","html-keyboard-response","84","2.0.0","1230181","pwka4tvygb7","bigger","gazelle","disability","no","<div style=""font-size:60px;"">+</div>","null","","","","","","",""
"","841","image-keyboard-response","85","2.0.0","1231023","pwka4tvygb7","bigger","gazelle","disability","no","stimuli/1-Inongruent.jpg","m","","","","","right","m","true"
"","null","html-keyboard-response","86","2.0.0","1231931","pwka4tvygb7","bigger","gazelle","disability","no","<p>Correct!</p>","null","","","","","","",""
"","null","html-keyboard-response","87","2.0.0","1232932","pwka4tvygb7","bigger","gazelle","disability","no","<div style=""font-size:60px;"">+</div>","null","","","","","","",""
"","473","image-keyboard-response","88","2.0.0","1233406","pwka4tvygb7","bigger","gazelle","disability","no","stimuli/5-Congruent.jpg","z","","","","","left","z","true"
"","null","html-keyboard-response","89","2.0.0","1234309","pwka4tvygb7","bigger","gazelle","disability","no","<p>Correct!</p>","null","","","","","","",""
"","null","html-keyboard-response","90","2.0.0","1235323","pwka4tvygb7","bigger","gazelle","disability","no","<div style=""font-size:60px;"">+</div>","null","","","","","","",""
"","459","image-keyboard-response","91","2.0.0","1235782","pwka4tvygb7","bigger","gazelle","disability","no","stimuli/2-Inongruent.jpg","m","","","","","right","m","true"
"","null","html-keyboard-response","92","2.0.0","1236697","pwka4tvygb7","bigger","gazelle","disability","no","<p>Correct!</p>","null","","","","","","",""
"","null","html-keyboard-response","93","2.0.0","1237701","pwka4tvygb7","bigger","gazelle","disability","no","<div style=""font-size:60px;"">+</div>","null","","","","","","",""
"","574","image-keyboard-response","94","2.0.0","1238275","pwka4tvygb7","bigger","gazelle","disability","no","stimuli/26-Inongruent.jpg","m","","","","","right","m","true"
"","null","html-keyboard-response","95","2.0.0","1239181","pwka4tvygb7","bigger","gazelle","disability","no","<p>Correct!</p>","null","","","","","","",""
"","null","html-keyboard-response","96","2.0.0","1240196","pwka4tvygb7","bigger","gazelle","disability","no","<div style=""font-size:60px;"">+</div>","null","","","","","","",""
"","396","image-keyboard-response","97","2.0.0","1240592","pwka4tvygb7","bigger","gazelle","disability","no","stimuli/7-Congruent.jpg","z","","","","","left","z","true"
"","null","html-keyboard-response","98","2.0.0","1241498","pwka4tvygb7","bigger","gazelle","disability","no","<p>Correct!</p>","null","","","","","","",""
"","null","html-keyboard-response","99","2.0.0","1242506","pwka4tvygb7","bigger","gazelle","disability","no","<div style=""font-size:60px;"">+</div>","null","","","","","","",""
"","367","image-keyboard-response","100","2.0.0","1242874","pwka4tvygb7","bigger","gazelle","disability","no","stimuli/1-Congruent.jpg","z","","","","","left","z","true"
"","null","html-keyboard-response","101","2.0.0","1243788","pwka4tvygb7","bigger","gazelle","disability","no","<p>Correct!</p>","null","","","","","","",""
"","null","html-keyboard-response","102","2.0.0","1244789","pwka4tvygb7","bigger","gazelle","disability","no","<div style=""font-size:60px;"">+</div>","null","","","","","","",""
"","347","image-keyboard-response","103","2.0.0","1245137","pwka4tvygb7","bigger","gazelle","disability","no","stimuli/1-Inongruent.jpg","m","","","","","right","m","true"
"","null","html-keyboard-response","104","2.0.0","1246051","pwka4tvygb7","bigger","gazelle","disability","no","<p>Correct!</p>","null","","","","","","",""
"","null","html-keyboard-response","105","2.0.0","1247064","pwka4tvygb7","bigger","gazelle","disability","no","<div style=""font-size:60px;"">+</div>","null","","","","","","",""
"","258","image-keyboard-response","106","2.0.0","1247323","pwka4tvygb7","bigger","gazelle","disability","no","stimuli/18-Congruent.jpg","z","","","","","left","z","true"
"","null","html-keyboard-response","107","2.0.0","1248226","pwka4tvygb7","bigger","gazelle","disability","no","<p>Correct!</p>","null","","","","","","",""
"","null","html-keyboard-response","108","2.0.0","1249232","pwka4tvygb7","bigger","gazelle","disability","no","<div style=""font-size:60px;"">+</div>","null","","","","","","",""
"","634","image-keyboard-response","109","2.0.0","1249867","pwka4tvygb7","bigger","gazelle","disability","no","stimuli/20-Inongruent.jpg","m","","","","","right","m","true"
"","null","html-keyboard-response","110","2.0.0","1250773","pwka4tvygb7","bigger","gazelle","disability","no","<p>Correct!</p>","null","","","","","","",""
"","null","html-keyboard-response","111","2.0.0","1251777","pwka4tvygb7","bigger","gazelle","disability","no","<div style=""font-size:60px;"">+</div>","null","","","","","","",""
"","426","image-keyboard-response","112","2.0.0","1252204","pwka4tvygb7","bigger","gazelle","disability","no","stimuli/3-Inongruent.jpg","m","","","","","right","m","true"
"","null","html-keyboard-response","113","2.0.0","1253120","pwka4tvygb7","bigger","gazelle","disability","no","<p>Correct!</p>","null","","","","","","",""
"","null","html-keyboard-response","114","2.0.0","1254132","pwka4tvygb7","bigger","gazelle","disability","no","<div style=""font-size:60px;"">+</div>","null","","","","","","",""
"","407","image-keyboard-response","115","2.0.0","1254539","pwka4tvygb7","bigger","gazelle","disability","no","stimuli/17-Congruent.jpg","z","","","","","left","z","true"
"","null","html-keyboard-response","116","2.0.0","1255441","pwka4tvygb7","bigger","gazelle","disability","no","<p>Correct!</p>","null","","","","","","",""
"","null","html-keyboard-response","117","2.0.0","1256444","pwka4tvygb7","bigger","gazelle","disability","no","<div style=""font-size:60px;"">+</div>","null","","","","","","",""
"","869","image-keyboard-response","118","2.0.0","1257314","pwka4tvygb7","bigger","gazelle","disability","no","stimuli/9-Inongruent.jpg","m","","","","","right","m","true"
"","null","html-keyboard-response","119","2.0.0","1258216","pwka4tvygb7","bigger","gazelle","disability","no","<p>Correct!</p>","null","","","","","","",""
"","null","html-keyboard-response","120","2.0.0","1259232","pwka4tvygb7","bigger","gazelle","disability","no","<div style=""font-size:60px;"">+</div>","null","","","","","","",""
"","461","image-keyboard-response","121","2.0.0","1259693","pwka4tvygb7","bigger","gazelle","disability","no","stimuli/29-Congruent.jpg","z","","","","","left","z","true"
"","null","html-keyboard-response","122","2.0.0","1260608","pwka4tvygb7","bigger","gazelle","disability","no","<p>Correct!</p>","null","","","","","","",""
"","null","html-keyboard-response","123","2.0.0","1261623","pwka4tvygb7","bigger","gazelle","disability","no","<div style=""font-size:60px;"">+</div>","null","","","","","","",""
"","2119","image-keyboard-response","124","2.0.0","1263743","pwka4tvygb7","bigger","gazelle","disability","no","stimuli/16-Congruent.jpg","z","","","","","left","z","true"
"","null","html-keyboard-response","125","2.0.0","1264645","pwka4tvygb7","bigger","gazelle","disability","no","<p>Correct!</p>","null","","","","","","",""
"","null","html-keyboard-response","126","2.0.0","1265648","pwka4tvygb7","bigger","gazelle","disability","no","<div style=""font-size:60px;"">+</div>","null","","","","","","",""
"","328","image-keyboard-response","127","2.0.0","1265976","pwka4tvygb7","bigger","gazelle","disability","no","stimuli/21-Congruent.jpg","z","","","","","left","z","true"
"","null","html-keyboard-response","128","2.0.0","1266881","pwka4tvygb7","bigger","gazelle","disability","no","<p>Correct!</p>","null","","","","","","",""
"","null","html-keyboard-response","129","2.0.0","1267882","pwka4tvygb7","bigger","gazelle","disability","no","<div style=""font-size:60px;"">+</div>","null","","","","","","",""
"","421","image-keyboard-response","130","2.0.0","1268303","pwka4tvygb7","bigger","gazelle","disability","no","stimuli/8-Congruent.jpg","z","","","","","left","z","true"
"","null","html-keyboard-response","131","2.0.0","1269205","pwka4tvygb7","bigger","gazelle","disability","no","<p>Correct!</p>","null","","","","","","",""
"","null","html-keyboard-response","132","2.0.0","1270219","pwka4tvygb7","bigger","gazelle","disability","no","<div style=""font-size:60px;"">+</div>","null","","","","","","",""
"","1259","image-keyboard-response","133","2.0.0","1271479","pwka4tvygb7","bigger","gazelle","disability","no","stimuli/4-Inongruent.jpg","m","","","","","right","m","true"
"","null","html-keyboard-response","134","2.0.0","1272392","pwka4tvygb7","bigger","gazelle","disability","no","<p>Correct!</p>","null","","","","","","",""
"","null","html-keyboard-response","135","2.0.0","1273407","pwka4tvygb7","bigger","gazelle","disability","no","<div style=""font-size:60px;"">+</div>","null","","","","","","",""
"","1030","image-keyboard-response","136","2.0.0","1274437","pwka4tvygb7","bigger","gazelle","disability","no","stimuli/36-Congruent.jpg","z","","","","","left","z","true"
"","null","html-keyboard-response","137","2.0.0","1275342","pwka4tvygb7","bigger","gazelle","disability","no","<p>Correct!</p>","null","","","","","","",""
"","null","html-keyboard-response","138","2.0.0","1276357","pwka4tvygb7","bigger","gazelle","disability","no","<div style=""font-size:60px;"">+</div>","null","","","","","","",""
"","548","image-keyboard-response","139","2.0.0","1276905","pwka4tvygb7","bigger","gazelle","disability","no","stimuli/14-Inongruent.jpg","m","","","","","right","m","true"
"","49","html-keyboard-response","140","2.0.0","1276954","pwka4tvygb7","bigger","gazelle","disability","no","<p>Correct!</p>"," ","","","","","","",""
"","null","html-keyboard-response","141","2.0.0","1277966","pwka4tvygb7","bigger","gazelle","disability","no","<div style=""font-size:60px;"">+</div>","null","","","","","","",""
"","857","image-keyboard-response","142","2.0.0","1278824","pwka4tvygb7","bigger","gazelle","disability","no","stimuli/19-Congruent.jpg","z","","","","","left","z","true"
"","null","html-keyboard-response","143","2.0.0","1279725","pwka4tvygb7","bigger","gazelle","disability","no","<p>Correct!</p>","null","","","","","","",""
"","null","html-keyboard-response","144","2.0.0","1280729","pwka4tvygb7","bigger","gazelle","disability","no","<div style=""font-size:60px;"">+</div>","null","","","","","","",""
"","773","image-keyboard-response","145","2.0.0","1281502","pwka4tvygb7","bigger","gazelle","disability","no","stimuli/31-Inongruent.jpg","m","","","","","right","m","true"
"","null","html-keyboard-response","146","2.0.0","1282405","pwka4tvygb7","bigger","gazelle","disability","no","<p>Correct!</p>","null","","","","","","",""
"","null","html-keyboard-response","147","2.0.0","1283408","pwka4tvygb7","bigger","gazelle","disability","no","<div style=""font-size:60px;"">+</div>","null","","","","","","",""
"","719","image-keyboard-response","148","2.0.0","1284128","pwka4tvygb7","bigger","gazelle","disability","no","stimuli/17-Inongruent.jpg","m","","","","","right","m","true"
"","null","html-keyboard-response","149","2.0.0","1285043","pwka4tvygb7","bigger","gazelle","disability","no","<p>Correct!</p>","null","","","","","","",""
"","null","html-keyboard-response","150","2.0.0","1286055","pwka4tvygb7","bigger","gazelle","disability","no","<div style=""font-size:60px;"">+</div>","null","","","","","","",""
"","508","image-keyboard-response","151","2.0.0","1286562","pwka4tvygb7","bigger","gazelle","disability","no","stimuli/34-Inongruent.jpg","m","","","","","right","m","true"
"","null","html-keyboard-response","152","2.0.0","1287470","pwka4tvygb7","bigger","gazelle","disability","no","<p>Correct!</p>","null","","","","","","",""
"","null","html-keyboard-response","153","2.0.0","1288482","pwka4tvygb7","bigger","gazelle","disability","no","<div style=""font-size:60px;"">+</div>","null","","","","","","",""
"","488","image-keyboard-response","154","2.0.0","1288971","pwka4tvygb7","bigger","gazelle","disability","no","stimuli/11-Congruent.jpg","z","","","","","left","z","true"
"","null","html-keyboard-response","155","2.0.0","1289874","pwka4tvygb7","bigger","gazelle","disability","no","<p>Correct!</p>","null","","","","","","",""
"","null","html-keyboard-response","156","2.0.0","1290890","pwka4tvygb7","bigger","gazelle","disability","no","<div style=""font-size:60px;"">+</div>","null","","","","","","",""
"","698","image-keyboard-response","157","2.0.0","1291588","pwka4tvygb7","bigger","gazelle","disability","no","stimuli/18-Congruent.jpg","z","","","","","left","z","true"
"","null","html-keyboard-response","158","2.0.0","1292497","pwka4tvygb7","bigger","gazelle","disability","no","<p>Correct!</p>","null","","","","","","",""
"","null","html-keyboard-response","159","2.0.0","1293511","pwka4tvygb7","bigger","gazelle","disability","no","<div style=""font-size:60px;"">+</div>","null","","","","","","",""
"","493","image-keyboard-response","160","2.0.0","1294005","pwka4tvygb7","bigger","gazelle","disability","no","stimuli/2-Congruent.jpg","z","","","","","left","z","true"
"","null","html-keyboard-response","161","2.0.0","1294915","pwka4tvygb7","bigger","gazelle","disability","no","<p>Correct!</p>","null","","","","","","",""
"","null","html-keyboard-response","162","2.0.0","1295928","pwka4tvygb7","bigger","gazelle","disability","no","<div style=""font-size:60px;"">+</div>","null","","","","","","",""
"","520","image-keyboard-response","163","2.0.0","1296448","pwka4tvygb7","bigger","gazelle","disability","no","stimuli/11-Inongruent.jpg","m","","","","","right","m","true"
"","null","html-keyboard-response","164","2.0.0","1297354","pwka4tvygb7","bigger","gazelle","disability","no","<p>Correct!</p>","null","","","","","","",""
"","null","html-keyboard-response","165","2.0.0","1298369","pwka4tvygb7","bigger","gazelle","disability","no","<div style=""font-size:60px;"">+</div>","null","","","","","","",""
"","745","image-keyboard-response","166","2.0.0","1299115","pwka4tvygb7","bigger","gazelle","disability","no","stimuli/19-Inongruent.jpg","m","","","","","right","m","true"
"","null","html-keyboard-response","167","2.0.0","1300026","pwka4tvygb7","bigger","gazelle","disability","no","<p>Correct!</p>","null","","","","","","",""
"","null","html-keyboard-response","168","2.0.0","1301039","pwka4tvygb7","bigger","gazelle","disability","no","<div style=""font-size:60px;"">+</div>","null","","","","","","",""
"","713","image-keyboard-response","169","2.0.0","1301753","pwka4tvygb7","bigger","gazelle","disability","no","stimuli/30-Inongruent.jpg","m","","","","","right","m","true"
"","null","html-keyboard-response","170","2.0.0","1302659","pwka4tvygb7","bigger","gazelle","disability","no","<p>Correct!</p>","null","","","","","","",""
"","null","html-keyboard-response","171","2.0.0","1303674","pwka4tvygb7","bigger","gazelle","disability","no","<div style=""font-size:60px;"">+</div>","null","","","","","","",""
"","347","image-keyboard-response","172","2.0.0","1304022","pwka4tvygb7","bigger","gazelle","disability","no","stimuli/3-Congruent.jpg","z","","","","","left","z","true"
"","null","html-keyboard-response","173","2.0.0","1304929","pwka4tvygb7","bigger","gazelle","disability","no","<p>Correct!</p>","null","","","","","","",""
"","null","html-keyboard-response","174","2.0.0","1305946","pwka4tvygb7","bigger","gazelle","disability","no","<div style=""font-size:60px;"">+</div>","null","","","","","","",""
"","402","image-keyboard-response","175","2.0.0","1306348","pwka4tvygb7","bigger","gazelle","disability","no","stimuli/6-Congruent.jpg","z","","","","","left","z","true"
"","null","html-keyboard-response","176","2.0.0","1307261","pwka4tvygb7","bigger","gazelle","disability","no","<p>Correct!</p>","null","","","","","","",""
"","null","html-keyboard-response","177","2.0.0","1308264","pwka4tvygb7","bigger","gazelle","disability","no","<div style=""font-size:60px;"">+</div>","null","","","","","","",""
"","451","image-keyboard-response","178","2.0.0","1308716","pwka4tvygb7","bigger","gazelle","disability","no","stimuli/15-Inongruent.jpg","m","","","","","right","m","true"
"","null","html-keyboard-response","179","2.0.0","1309626","pwka4tvygb7","bigger","gazelle","disability","no","<p>Correct!</p>","null","","","","","","",""
"","null","html-keyboard-response","180","2.0.0","1310633","pwka4tvygb7","bigger","gazelle","disability","no","<div style=""font-size:60px;"">+</div>","null","","","","","","",""
"","462","image-keyboard-response","181","2.0.0","1311095","pwka4tvygb7","bigger","gazelle","disability","no","stimuli/7-Inongruent.jpg","m","","","","","right","m","true"
"","null","html-keyboard-response","182","2.0.0","1312002","pwka4tvygb7","bigger","gazelle","disability","no","<p>Correct!</p>","null","","","","","","",""
"","null","html-keyboard-response","183","2.0.0","1313006","pwka4tvygb7","bigger","gazelle","disability","no","<div style=""font-size:60px;"">+</div>","null","","","","","","",""
"","418","image-keyboard-response","184","2.0.0","1313425","pwka4tvygb7","bigger","gazelle","disability","no","stimuli/10-Congruent.jpg","z","","","","","left","z","true"
"","null","html-keyboard-response","185","2.0.0","1314339","pwka4tvygb7","bigger","gazelle","disability","no","<p>Correct!</p>","null","","","","","","",""
"","null","html-keyboard-response","186","2.0.0","1315342","pwka4tvygb7","bigger","gazelle","disability","no","<div style=""font-size:60px;"">+</div>","null","","","","","","",""
"","416","image-keyboard-response","187","2.0.0","1315759","pwka4tvygb7","bigger","gazelle","disability","no","stimuli/21-Inongruent.jpg","m","","","","","right","m","true"
"","null","html-keyboard-response","188","2.0.0","1316670","pwka4tvygb7","bigger","gazelle","disability","no","<p>Correct!</p>","null","","","","","","",""
"","null","html-keyboard-response","189","2.0.0","1317671","pwka4tvygb7","bigger","gazelle","disability","no","<div style=""font-size:60px;"">+</div>","null","","","","","","",""
"","403","image-keyboard-response","190","2.0.0","1318075","pwka4tvygb7","bigger","gazelle","disability","no","stimuli/10-Inongruent.jpg","m","","","","","right","m","true"
"","null","html-keyboard-response","191","2.0.0","1318984","pwka4tvygb7","bigger","gazelle","disability","no","<p>Correct!</p>","null","","","","","","",""
"","null","html-keyboard-response","192","2.0.0","1319997","pwka4tvygb7","bigger","gazelle","disability","no","<div style=""font-size:60px;"">+</div>","null","","","","","","",""
"","358","image-keyboard-response","193","2.0.0","1320356","pwka4tvygb7","bigger","gazelle","disability","no","stimuli/27-Congruent.jpg","z","","","","","left","z","true"
"","null","html-keyboard-response","194","2.0.0","1321260","pwka4tvygb7","bigger","gazelle","disability","no","<p>Correct!</p>","null","","","","","","",""
"","null","html-keyboard-response","195","2.0.0","1322276","pwka4tvygb7","bigger","gazelle","disability","no","<div style=""font-size:60px;"">+</div>","null","","","","","","",""
"","604","image-keyboard-response","196","2.0.0","1322881","pwka4tvygb7","bigger","gazelle","disability","no","stimuli/35-Inongruent.jpg","m","","","","","right","m","true"
"","null","html-keyboard-response","197","2.0.0","1323792","pwka4tvygb7","bigger","gazelle","disability","no","<p>Correct!</p>","null","","","","","","",""
"","null","html-keyboard-response","198","2.0.0","1324796","pwka4tvygb7","bigger","gazelle","disability","no","<div style=""font-size:60px;"">+</div>","null","","","","","","",""
"","510","image-keyboard-response","199","2.0.0","1325307","pwka4tvygb7","bigger","gazelle","disability","no","stimuli/20-Congruent.jpg","z","","","","","left","z","true"
"","null","html-keyboard-response","200","2.0.0","1326217","pwka4tvygb7","bigger","gazelle","disability","no","<p>Correct!</p>","null","","","","","","",""
"","null","html-keyboard-response","201","2.0.0","1327229","pwka4tvygb7","bigger","gazelle","disability","no","<div style=""font-size:60px;"">+</div>","null","","","","","","",""
"","661","image-keyboard-response","202","2.0.0","1327891","pwka4tvygb7","bigger","gazelle","disability","no","stimuli/16-Congruent.jpg","z","","","","","left","z","true"
"","null","html-keyboard-response","203","2.0.0","1328792","pwka4tvygb7","bigger","gazelle","disability","no","<p>Correct!</p>","null","","","","","","",""
"","null","html-keyboard-response","204","2.0.0","1329793","pwka4tvygb7","bigger","gazelle","disability","no","<div style=""font-size:60px;"">+</div>","null","","","","","","",""
"","440","image-keyboard-response","205","2.0.0","1330234","pwka4tvygb7","bigger","gazelle","disability","no","stimuli/22-Congruent.jpg","z","","","","","left","z","true"
"","null","html-keyboard-response","206","2.0.0","1331149","pwka4tvygb7","bigger","gazelle","disability","no","<p>Correct!</p>","null","","","","","","",""
"","null","html-keyboard-response","207","2.0.0","1332152","pwka4tvygb7","bigger","gazelle","disability","no","<div style=""font-size:60px;"">+</div>","null","","","","","","",""
"","486","image-keyboard-response","208","2.0.0","1332638","pwka4tvygb7","bigger","gazelle","disability","no","stimuli/33-Inongruent.jpg","m","","","","","right","m","true"
"","null","html-keyboard-response","209","2.0.0","1333553","pwka4tvygb7","bigger","gazelle","disability","no","<p>Correct!</p>","null","","","","","","",""
"","null","html-keyboard-response","210","2.0.0","1334560","pwka4tvygb7","bigger","gazelle","disability","no","<div style=""font-size:60px;"">+</div>","null","","","","","","",""
"","936","image-keyboard-response","211","2.0.0","1335496","pwka4tvygb7","bigger","gazelle","disability","no","stimuli/33-Inongruent.jpg","m","","","","","right","m","true"
"","null","html-keyboard-response","212","2.0.0","1336399","pwka4tvygb7","bigger","gazelle","disability","no","<p>Correct!</p>","null","","","","","","",""
"","null","html-keyboard-response","213","2.0.0","1337401","pwka4tvygb7","bigger","gazelle","disability","no","<div style=""font-size:60px;"">+</div>","null","","","","","","",""
"","453","image-keyboard-response","214","2.0.0","1337854","pwka4tvygb7","bigger","gazelle","disability","no","stimuli/35-Congruent.jpg","z","","","","","left","z","true"
"","null","html-keyboard-response","215","2.0.0","1338758","pwka4tvygb7","bigger","gazelle","disability","no","<p>Correct!</p>","null","","","","","","",""
"","null","html-keyboard-response","216","2.0.0","1339771","pwka4tvygb7","bigger","gazelle","disability","no","<div style=""font-size:60px;"">+</div>","null","","","","","","",""
"","511","image-keyboard-response","217","2.0.0","1340283","pwka4tvygb7","bigger","gazelle","disability","no","stimuli/33-Congruent.jpg","z","","","","","left","z","true"
"","null","html-keyboard-response","218","2.0.0","1341186","pwka4tvygb7","bigger","gazelle","disability","no","<p>Correct!</p>","null","","","","","","",""
"","null","html-keyboard-response","219","2.0.0","1342197","pwka4tvygb7","bigger","gazelle","disability","no","<div style=""font-size:60px;"">+</div>","null","","","","","","",""
"","389","image-keyboard-response","220","2.0.0","1342587","pwka4tvygb7","bigger","gazelle","disability","no","stimuli/3-Inongruent.jpg","m","","","","","right","m","true"
"","null","html-keyboard-response","221","2.0.0","1343501","pwka4tvygb7","bigger","gazelle","disability","no","<p>Correct!</p>","null","","","","","","",""
"","null","html-keyboard-response","222","2.0.0","1344503","pwka4tvygb7","bigger","gazelle","disability","no","<div style=""font-size:60px;"">+</div>","null","","","","","","",""
"","577","image-keyboard-response","223","2.0.0","1345081","pwka4tvygb7","bigger","gazelle","disability","no","stimuli/25-Inongruent.jpg","m","","","","","right","m","true"
"","null","html-keyboard-response","224","2.0.0","1345988","pwka4tvygb7","bigger","gazelle","disability","no","<p>Correct!</p>","null","","","","","","",""
"","null","html-keyboard-response","225","2.0.0","1347001","pwka4tvygb7","bigger","gazelle","disability","no","<div style=""font-size:60px;"">+</div>","null","","","","","","",""
"","395","image-keyboard-response","226","2.0.0","1347397","pwka4tvygb7","bigger","gazelle","disability","no","stimuli/24-Congruent.jpg","z","","","","","left","z","true"
"","null","html-keyboard-response","227","2.0.0","1348311","pwka4tvygb7","bigger","gazelle","disability","no","<p>Correct!</p>","null","","","","","","",""
"","null","html-keyboard-response","228","2.0.0","1349325","pwka4tvygb7","bigger","gazelle","disability","no","<div style=""font-size:60px;"">+</div>","null","","","","","","",""
"","645","image-keyboard-response","229","2.0.0","1349971","pwka4tvygb7","bigger","gazelle","disability","no","stimuli/27-Inongruent.jpg","m","","","","","right","m","true"
"","null","html-keyboard-response","230","2.0.0","1350873","pwka4tvygb7","bigger","gazelle","disability","no","<p>Correct!</p>","null","","","","","","",""
"","null","html-keyboard-response","231","2.0.0","1351886","pwka4tvygb7","bigger","gazelle","disability","no","<div style=""font-size:60px;"">+</div>","null","","","","","","",""
"","457","image-keyboard-response","232","2.0.0","1352344","pwka4tvygb7","bigger","gazelle","disability","no","stimuli/32-Inongruent.jpg","m","","","","","right","m","true"
"","null","html-keyboard-response","233","2.0.0","1353245","pwka4tvygb7","bigger","gazelle","disability","no","<p>Correct!</p>","null","","","","","","",""
"","null","html-keyboard-response","234","2.0.0","1354256","pwka4tvygb7","bigger","gazelle","disability","no","<div style=""font-size:60px;"">+</div>","null","","","","","","",""
"","1896","image-keyboard-response","235","2.0.0","1356152","pwka4tvygb7","bigger","gazelle","disability","no","stimuli/25-Inongruent.jpg","m","","","","","right","m","true"
"","null","html-keyboard-response","236","2.0.0","1357057","pwka4tvygb7","bigger","gazelle","disability","no","<p>Correct!</p>","null","","","","","","",""
"","null","html-keyboard-response","237","2.0.0","1358074","pwka4tvygb7","bigger","gazelle","disability","no","<div style=""font-size:60px;"">+</div>","null","","","","","","",""
"","413","image-keyboard-response","238","2.0.0","1358487","pwka4tvygb7","bigger","gazelle","disability","no","stimuli/32-Congruent.jpg","z","","","","","left","z","true"
"","null","html-keyboard-response","239","2.0.0","1359389","pwka4tvygb7","bigger","gazelle","disability","no","<p>Correct!</p>","null","","","","","","",""
"","null","html-keyboard-response","240","2.0.0","1360393","pwka4tvygb7","bigger","gazelle","disability","no","<div style=""font-size:60px;"">+</div>","null","","","","","","",""
"","415","image-keyboard-response","241","2.0.0","1360809","pwka4tvygb7","bigger","gazelle","disability","no","stimuli/2-Congruent.jpg","z","","","","","left","z","true"
"","null","html-keyboard-response","242","2.0.0","1361718","pwka4tvygb7","bigger","gazelle","disability","no","<p>Correct!</p>","null","","","","","","",""
"","null","html-keyboard-response","243","2.0.0","1362726","pwka4tvygb7","bigger","gazelle","disability","no","<div style=""font-size:60px;"">+</div>","null","","","","","","",""
"","441","image-keyboard-response","244","2.0.0","1363168","pwka4tvygb7","bigger","gazelle","disability","no","stimuli/19-Inongruent.jpg","m","","","","","right","m","true"
"","null","html-keyboard-response","245","2.0.0","1364074","pwka4tvygb7","bigger","gazelle","disability","no","<p>Correct!</p>","null","","","","","","",""
"","null","html-keyboard-response","246","2.0.0","1365090","pwka4tvygb7","bigger","gazelle","disability","no","<div style=""font-size:60px;"">+</div>","null","","","","","","",""
"","415","image-keyboard-response","247","2.0.0","1365505","pwka4tvygb7","bigger","gazelle","disability","no","stimuli/7-Inongruent.jpg","m","","","","","right","m","true"
"","null","html-keyboard-response","248","2.0.0","1366420","pwka4tvygb7","bigger","gazelle","disability","no","<p>Correct!</p>","null","","","","","","",""
"","null","html-keyboard-response","249","2.0.0","1367431","pwka4tvygb7","bigger","gazelle","disability","no","<div style=""font-size:60px;"">+</div>","null","","","","","","",""
"","496","image-keyboard-response","250","2.0.0","1367927","pwka4tvygb7","bigger","gazelle","disability","no","stimuli/23-Congruent.jpg","z","","","","","left","z","true"
"","null","html-keyboard-response","251","2.0.0","1368837","pwka4tvygb7","bigger","gazelle","disability","no","<p>Correct!</p>","null","","","","","","",""
"","null","html-keyboard-response","252","2.0.0","1369841","pwka4tvygb7","bigger","gazelle","disability","no","<div style=""font-size:60px;"">+</div>","null","","","","","","",""
"","511","image-keyboard-response","253","2.0.0","1370352","pwka4tvygb7","bigger","gazelle","disability","no","stimuli/20-Congruent.jpg","z","","","","","left","z","true"
"","null","html-keyboard-response","254","2.0.0","1371268","pwka4tvygb7","bigger","gazelle","disability","no","<p>Correct!</p>","null","","","","","","",""
"","null","html-keyboard-response","255","2.0.0","1372278","pwka4tvygb7","bigger","gazelle","disability","no","<div style=""font-size:60px;"">+</div>","null","","","","","","",""
"","486","image-keyboard-response","256","2.0.0","1372764","pwka4tvygb7","bigger","gazelle","disability","no","stimuli/7-Congruent.jpg","z","","","","","left","z","true"
"","null","html-keyboard-response","257","2.0.0","1373666","pwka4tvygb7","bigger","gazelle","disability","no","<p>Correct!</p>","null","","","","","","",""
"","null","html-keyboard-response","258","2.0.0","1374666","pwka4tvygb7","bigger","gazelle","disability","no","<div style=""font-size:60px;"">+</div>","null","","","","","","",""
"","420","image-keyboard-response","259","2.0.0","1375087","pwka4tvygb7","bigger","gazelle","disability","no","stimuli/25-Congruent.jpg","z","","","","","left","z","true"
"","null","html-keyboard-response","260","2.0.0","1375994","pwka4tvygb7","bigger","gazelle","disability","no","<p>Correct!</p>","null","","","","","","",""
"","null","html-keyboard-response","261","2.0.0","1377008","pwka4tvygb7","bigger","gazelle","disability","no","<div style=""font-size:60px;"">+</div>","null","","","","","","",""
"","409","image-keyboard-response","262","2.0.0","1377418","pwka4tvygb7","bigger","gazelle","disability","no","stimuli/32-Congruent.jpg","z","","","","","left","z","true"
"","null","html-keyboard-response","263","2.0.0","1378333","pwka4tvygb7","bigger","gazelle","disability","no","<p>Correct!</p>","null","","","","","","",""
"","null","html-keyboard-response","264","2.0.0","1379348","pwka4tvygb7","bigger","gazelle","disability","no","<div style=""font-size:60px;"">+</div>","null","","","","","","",""
"","374","image-keyboard-response","265","2.0.0","1379722","pwka4tvygb7","bigger","gazelle","disability","no","stimuli/16-Inongruent.jpg","m","","","","","right","m","true"
"","null","html-keyboard-response","266","2.0.0","1380628","pwka4tvygb7","bigger","gazelle","disability","no","<p>Correct!</p>","null","","","","","","",""
"","null","html-keyboard-response","267","2.0.0","1381642","pwka4tvygb7","bigger","gazelle","disability","no","<div style=""font-size:60px;"">+</div>","null","","","","","","",""
"","333","image-keyboard-response","268","2.0.0","1381976","pwka4tvygb7","bigger","gazelle","disability","no","stimuli/31-Congruent.jpg","z","","","","","left","z","true"
"","null","html-keyboard-response","269","2.0.0","1382890","pwka4tvygb7","bigger","gazelle","disability","no","<p>Correct!</p>","null","","","","","","",""
"","null","html-keyboard-response","270","2.0.0","1383903","pwka4tvygb7","bigger","gazelle","disability","no","<div style=""font-size:60px;"">+</div>","null","","","","","","",""
"","393","image-keyboard-response","271","2.0.0","1384297","pwka4tvygb7","bigger","gazelle","disability","no","stimuli/22-Congruent.jpg","z","","","","","left","z","true"
"","null","html-keyboard-response","272","2.0.0","1385204","pwka4tvygb7","bigger","gazelle","disability","no","<p>Correct!</p>","null","","","","","","",""
"","null","html-keyboard-response","273","2.0.0","1386218","pwka4tvygb7","bigger","gazelle","disability","no","<div style=""font-size:60px;"">+</div>","null","","","","","","",""
"","468","image-keyboard-response","274","2.0.0","1386686","pwka4tvygb7","bigger","gazelle","disability","no","stimuli/5-Inongruent.jpg","m","","","","","right","m","true"
"","null","html-keyboard-response","275","2.0.0","1387594","pwka4tvygb7","bigger","gazelle","disability","no","<p>Correct!</p>","null","","","","","","",""
"","null","html-keyboard-response","276","2.0.0","1388608","pwka4tvygb7","bigger","gazelle","disability","no","<div style=""font-size:60px;"">+</div>","null","","","","","","",""
"","657","image-keyboard-response","277","2.0.0","1389265","pwka4tvygb7","bigger","gazelle","disability","no","stimuli/34-Inongruent.jpg","m","","","","","right","m","true"
"","null","html-keyboard-response","278","2.0.0","1390166","pwka4tvygb7","bigger","gazelle","disability","no","<p>Correct!</p>","null","","","","","","",""
"","null","html-keyboard-response","279","2.0.0","1391180","pwka4tvygb7","bigger","gazelle","disability","no","<div style=""font-size:60px;"">+</div>","null","","","","","","",""
"","479","image-keyboard-response","280","2.0.0","1391659","pwka4tvygb7","bigger","gazelle","disability","no","stimuli/13-Congruent.jpg","z","","","","","left","z","true"
"","null","html-keyboard-response","281","2.0.0","1392571","pwka4tvygb7","bigger","gazelle","disability","no","<p>Correct!</p>","null","","","","","","",""
"","null","html-keyboard-response","282","2.0.0","1393585","pwka4tvygb7","bigger","gazelle","disability","no","<div style=""font-size:60px;"">+</div>","null","","","","","","",""
"","319","image-keyboard-response","283","2.0.0","1393904","pwka4tvygb7","bigger","gazelle","disability","no","stimuli/27-Congruent.jpg","m","","","","","left","z","false"
"","null","html-keyboard-response","284","2.0.0","1398915","pwka4tvygb7","bigger","gazelle","disability","no","<p>Incorrect.</p><p>Remember to select the <b>bigger</b> image.</p><p>Continuing in 5 seconds...</p>","null","","","","","","",""
"","null","html-keyboard-response","285","2.0.0","1399931","pwka4tvygb7","bigger","gazelle","disability","no","<div style=""font-size:60px;"">+</div>","null","","","","","","",""
"","622","image-keyboard-response","286","2.0.0","1400553","pwka4tvygb7","bigger","gazelle","disability","no","stimuli/24-Inongruent.jpg","m","","","","","right","m","true"
"","null","html-keyboard-response","287","2.0.0","1401464","pwka4tvygb7","bigger","gazelle","disability","no","<p>Correct!</p>","null","","","","","","",""
"","null","html-keyboard-response","288","2.0.0","1402479","pwka4tvygb7","bigger","gazelle","disability","no","<div style=""font-size:60px;"">+</div>","null","","","","","","",""
"","413","image-keyboard-response","289","2.0.0","1402893","pwka4tvygb7","bigger","gazelle","disability","no","stimuli/12-Congruent.jpg","z","","","","","left","z","true"
"","null","html-keyboard-response","290","2.0.0","1403806","pwka4tvygb7","bigger","gazelle","disability","no","<p>Correct!</p>","null","","","","","","",""
"","null","html-keyboard-response","291","2.0.0","1404809","pwka4tvygb7","bigger","gazelle","disability","no","<div style=""font-size:60px;"">+</div>","null","","","","","","",""
"","444","image-keyboard-response","292","2.0.0","1405253","pwka4tvygb7","bigger","gazelle","disability","no","stimuli/12-Inongruent.jpg","m","","","","","right","m","true"
"","null","html-keyboard-response","293","2.0.0","1406167","pwka4tvygb7","bigger","gazelle","disability","no","<p>Correct!</p>","null","","","","","","",""
"","null","html-keyboard-response","294","2.0.0","1407175","pwka4tvygb7","bigger","gazelle","disability","no","<div style=""font-size:60px;"">+</div>","null","","","","","","",""
"","538","image-keyboard-response","295","2.0.0","1407714","pwka4tvygb7","bigger","gazelle","disability","no","stimuli/20-Inongruent.jpg","m","","","","","right","m","true"
"","null","html-keyboard-response","296","2.0.0","1408618","pwka4tvygb7","bigger","gazelle","disability","no","<p>Correct!</p>","null","","","","","","",""
"","null","html-keyboard-response","297","2.0.0","1409621","pwka4tvygb7","bigger","gazelle","disability","no","<div style=""font-size:60px;"">+</div>","null","","","","","","",""
"","397","image-keyboard-response","298","2.0.0","1410018","pwka4tvygb7","bigger","gazelle","disability","no","stimuli/5-Inongruent.jpg","m","","","","","right","m","true"
"","null","html-keyboard-response","299","2.0.0","1410921","pwka4tvygb7","bigger","gazelle","disability","no","<p>Correct!</p>","null","","","","","","",""
"","null","html-keyboard-response","300","2.0.0","1411936","pwka4tvygb7","bigger","gazelle","disability","no","<div style=""font-size:60px;"">+</div>","null","","","","","","",""
"","525","image-keyboard-response","301","2.0.0","1412462","pwka4tvygb7","bigger","gazelle","disability","no","stimuli/17-Inongruent.jpg","m","","","","","right","m","true"
"","null","html-keyboard-response","302","2.0.0","1413374","pwka4tvygb7","bigger","gazelle","disability","no","<p>Correct!</p>","null","","","","","","",""
"","null","html-keyboard-response","303","2.0.0","1414388","pwka4tvygb7","bigger","gazelle","disability","no","<div style=""font-size:60px;"">+</div>","null","","","","","","",""
"","1174","image-keyboard-response","304","2.0.0","1415562","pwka4tvygb7","bigger","gazelle","disability","no","stimuli/9-Congruent.jpg","z","","","","","left","z","true"
"","null","html-keyboard-response","305","2.0.0","1416466","pwka4tvygb7","bigger","gazelle","disability","no","<p>Correct!</p>","null","","","","","","",""
"","null","html-keyboard-response","306","2.0.0","1417471","pwka4tvygb7","bigger","gazelle","disability","no","<div style=""font-size:60px;"">+</div>","null","","","","","","",""
"","934","image-keyboard-response","307","2.0.0","1418406","pwka4tvygb7","bigger","gazelle","disability","no","stimuli/28-Inongruent.jpg","m","","","","","right","m","true"
"","null","html-keyboard-response","308","2.0.0","1419309","pwka4tvygb7","bigger","gazelle","disability","no","<p>Correct!</p>","null","","","","","","",""
"","null","html-keyboard-response","309","2.0.0","1420321","pwka4tvygb7","bigger","gazelle","disability","no","<div style=""font-size:60px;"">+</div>","null","","","","","","",""
"","974","image-keyboard-response","310","2.0.0","1421296","pwka4tvygb7","bigger","gazelle","disability","no","stimuli/6-Inongruent.jpg","m","","","","","right","m","true"
"","null","html-keyboard-response","311","2.0.0","1422198","pwka4tvygb7","bigger","gazelle","disability","no","<p>Correct!</p>","null","","","","","","",""
"","null","html-keyboard-response","312","2.0.0","1423213","pwka4tvygb7","bigger","gazelle","disability","no","<div style=""font-size:60px;"">+</div>","null","","","","","","",""
"","652","image-keyboard-response","313","2.0.0","1423865","pwka4tvygb7","bigger","gazelle","disability","no","stimuli/34-Congruent.jpg","z","","","","","left","z","true"
"","null","html-keyboard-response","314","2.0.0","1424771","pwka4tvygb7","bigger","gazelle","disability","no","<p>Correct!</p>","null","","","","","","",""
"","null","html-keyboard-response","315","2.0.0","1425773","pwka4tvygb7","bigger","gazelle","disability","no","<div style=""font-size:60px;"">+</div>","null","","","","","","",""
"","686","image-keyboard-response","316","2.0.0","1426460","pwka4tvygb7","bigger","gazelle","disability","no","stimuli/26-Inongruent.jpg","m","","","","","right","m","true"
"","null","html-keyboard-response","317","2.0.0","1427366","pwka4tvygb7","bigger","gazelle","disability","no","<p>Correct!</p>","null","","","","","","",""
"","null","html-keyboard-response","318","2.0.0","1428371","pwka4tvygb7","bigger","gazelle","disability","no","<div style=""font-size:60px;"">+</div>","null","","","","","","",""
"","509","image-keyboard-response","319","2.0.0","1428881","pwka4tvygb7","bigger","gazelle","disability","no","stimuli/29-Congruent.jpg","z","","","","","left","z","true"
"","null","html-keyboard-response","320","2.0.0","1429796","pwka4tvygb7","bigger","gazelle","disability","no","<p>Correct!</p>","null","","","","","","",""
"","null","html-keyboard-response","321","2.0.0","1430798","pwka4tvygb7","bigger","gazelle","disability","no","<div style=""font-size:60px;"">+</div>","null","","","","","","",""
"","437","image-keyboard-response","322","2.0.0","1431236","pwka4tvygb7","bigger","gazelle","disability","no","stimuli/15-Inongruent.jpg","m","","","","","right","m","true"
"","null","html-keyboard-response","323","2.0.0","1432150","pwka4tvygb7","bigger","gazelle","disability","no","<p>Correct!</p>","null","","","","","","",""
"","null","html-keyboard-response","324","2.0.0","1433158","pwka4tvygb7","bigger","gazelle","disability","no","<div style=""font-size:60px;"">+</div>","null","","","","","","",""
"","608","image-keyboard-response","325","2.0.0","1433767","pwka4tvygb7","bigger","gazelle","disability","no","stimuli/29-Inongruent.jpg","m","","","","","right","m","true"
"","null","html-keyboard-response","326","2.0.0","1434680","pwka4tvygb7","bigger","gazelle","disability","no","<p>Correct!</p>","null","","","","","","",""
"","null","html-keyboard-response","327","2.0.0","1435681","pwka4tvygb7","bigger","gazelle","disability","no","<div style=""font-size:60px;"">+</div>","null","","","","","","",""
"","409","image-keyboard-response","328","2.0.0","1436090","pwka4tvygb7","bigger","gazelle","disability","no","stimuli/4-Congruent.jpg","z","","","","","left","z","true"
"","null","html-keyboard-response","329","2.0.0","1436998","pwka4tvygb7","bigger","gazelle","disability","no","<p>Correct!</p>","null","","","","","","",""
"","null","html-keyboard-response","330","2.0.0","1438013","pwka4tvygb7","bigger","gazelle","disability","no","<div style=""font-size:60px;"">+</div>","null","","","","","","",""
"","734","image-keyboard-response","331","2.0.0","1438747","pwka4tvygb7","bigger","gazelle","disability","no","stimuli/5-Congruent.jpg","z","","","","","left","z","true"
"","null","html-keyboard-response","332","2.0.0","1439654","pwka4tvygb7","bigger","gazelle","disability","no","<p>Correct!</p>","null","","","","","","",""
"","null","html-keyboard-response","333","2.0.0","1440669","pwka4tvygb7","bigger","gazelle","disability","no","<div style=""font-size:60px;"">+</div>","null","","","","","","",""
"","620","image-keyboard-response","334","2.0.0","1441290","pwka4tvygb7","bigger","gazelle","disability","no","stimuli/8-Congruent.jpg","z","","","","","left","z","true"
"","null","html-keyboard-response","335","2.0.0","1442199","pwka4tvygb7","bigger","gazelle","disability","no","<p>Correct!</p>","null","","","","","","",""
"","null","html-keyboard-response","336","2.0.0","1443210","pwka4tvygb7","bigger","gazelle","disability","no","<div style=""font-size:60px;"">+</div>","null","","","","","","",""
"","428","image-keyboard-response","337","2.0.0","1443638","pwka4tvygb7","bigger","gazelle","disability","no","stimuli/34-Congruent.jpg","z","","","","","left","z","true"
"","null","html-keyboard-response","338","2.0.0","1444551","pwka4tvygb7","bigger","gazelle","disability","no","<p>Correct!</p>","null","","","","","","",""
"","null","html-keyboard-response","339","2.0.0","1445557","pwka4tvygb7","bigger","gazelle","disability","no","<div style=""font-size:60px;"">+</div>","null","","","","","","",""
"","563","image-keyboard-response","340","2.0.0","1446120","pwka4tvygb7","bigger","gazelle","disability","no","stimuli/4-Congruent.jpg","z","","","","","left","z","true"
"","null","html-keyboard-response","341","2.0.0","1447027","pwka4tvygb7","bigger","gazelle","disability","no","<p>Correct!</p>","null","","","","","","",""
"","null","html-keyboard-response","342","2.0.0","1448039","pwka4tvygb7","bigger","gazelle","disability","no","<div style=""font-size:60px;"">+</div>","null","","","","","","",""
"","476","image-keyboard-response","343","2.0.0","1448515","pwka4tvygb7","bigger","gazelle","disability","no","stimuli/3-Congruent.jpg","z","","","","","left","z","true"
"","null","html-keyboard-response","344","2.0.0","1449426","pwka4tvygb7","bigger","gazelle","disability","no","<p>Correct!</p>","null","","","","","","",""
"","null","html-keyboard-response","345","2.0.0","1450442","pwka4tvygb7","bigger","gazelle","disability","no","<div style=""font-size:60px;"">+</div>","null","","","","","","",""
"","602","image-keyboard-response","346","2.0.0","1451045","pwka4tvygb7","bigger","gazelle","disability","no","stimuli/6-Inongruent.jpg","m","","","","","right","m","true"
"","null","html-keyboard-response","347","2.0.0","1451950","pwka4tvygb7","bigger","gazelle","disability","no","<p>Correct!</p>","null","","","","","","",""
"","null","html-keyboard-response","348","2.0.0","1452966","pwka4tvygb7","bigger","gazelle","disability","no","<div style=""font-size:60px;"">+</div>","null","","","","","","",""
"","455","image-keyboard-response","349","2.0.0","1453421","pwka4tvygb7","bigger","gazelle","disability","no","stimuli/28-Congruent.jpg","z","","","","","left","z","true"
"","null","html-keyboard-response","350","2.0.0","1454328","pwka4tvygb7","bigger","gazelle","disability","no","<p>Correct!</p>","null","","","","","","",""
"","null","html-keyboard-response","351","2.0.0","1455344","pwka4tvygb7","bigger","gazelle","disability","no","<div style=""font-size:60px;"">+</div>","null","","","","","","",""
"","543","image-keyboard-response","352","2.0.0","1455887","pwka4tvygb7","bigger","gazelle","disability","no","stimuli/2-Inongruent.jpg","m","","","","","right","m","true"
"","null","html-keyboard-response","353","2.0.0","1456797","pwka4tvygb7","bigger","gazelle","disability","no","<p>Correct!</p>","null","","","","","","",""
"","null","html-keyboard-response","354","2.0.0","1457811","pwka4tvygb7","bigger","gazelle","disability","no","<div style=""font-size:60px;"">+</div>","null","","","","","","",""
"","648","image-keyboard-response","355","2.0.0","1458460","pwka4tvygb7","bigger","gazelle","disability","no","stimuli/28-Inongruent.jpg","m","","","","","right","m","true"
"","null","html-keyboard-response","356","2.0.0","1459374","pwka4tvygb7","bigger","gazelle","disability","no","<p>Correct!</p>","null","","","","","","",""
"","null","html-keyboard-response","357","2.0.0","1460383","pwka4tvygb7","bigger","gazelle","disability","no","<div style=""font-size:60px;"">+</div>","null","","","","","","",""
"","476","image-keyboard-response","358","2.0.0","1460859","pwka4tvygb7","bigger","gazelle","disability","no","stimuli/22-Inongruent.jpg","m","","","","","right","m","true"
"","null","html-keyboard-response","359","2.0.0","1461765","pwka4tvygb7","bigger","gazelle","disability","no","<p>Correct!</p>","null","","","","","","",""
"","null","html-keyboard-response","360","2.0.0","1462769","pwka4tvygb7","bigger","gazelle","disability","no","<div style=""font-size:60px;"">+</div>","null","","","","","","",""
"","449","image-keyboard-response","361","2.0.0","1463218","pwka4tvygb7","bigger","gazelle","disability","no","stimuli/12-Congruent.jpg","z","","","","","left","z","true"
"","null","html-keyboard-response","362","2.0.0","1464125","pwka4tvygb7","bigger","gazelle","disability","no","<p>Correct!</p>","null","","","","","","",""
"","null","html-keyboard-response","363","2.0.0","1465140","pwka4tvygb7","bigger","gazelle","disability","no","<div style=""font-size:60px;"">+</div>","null","","","","","","",""
"","538","image-keyboard-response","364","2.0.0","1465679","pwka4tvygb7","bigger","gazelle","disability","no","stimuli/30-Congruent.jpg","z","","","","","left","z","true"
"","null","html-keyboard-response","365","2.0.0","1466591","pwka4tvygb7","bigger","gazelle","disability","no","<p>Correct!</p>","null","","","","","","",""
"","null","html-keyboard-response","366","2.0.0","1467604","pwka4tvygb7","bigger","gazelle","disability","no","<div style=""font-size:60px;"">+</div>","null","","","","","","",""
"","767","image-keyboard-response","367","2.0.0","1468372","pwka4tvygb7","bigger","gazelle","disability","no","stimuli/36-Congruent.jpg","z","","","","","left","z","true"
"","null","html-keyboard-response","368","2.0.0","1469278","pwka4tvygb7","bigger","gazelle","disability","no","<p>Correct!</p>","null","","","","","","",""
"","null","html-keyboard-response","369","2.0.0","1470295","pwka4tvygb7","bigger","gazelle","disability","no","<div style=""font-size:60px;"">+</div>","null","","","","","","",""
"","554","image-keyboard-response","370","2.0.0","1470849","pwka4tvygb7","bigger","gazelle","disability","no","stimuli/36-Inongruent.jpg","m","","","","","right","m","true"
"","null","html-keyboard-response","371","2.0.0","1471762","pwka4tvygb7","bigger","gazelle","disability","no","<p>Correct!</p>","null","","","","","","",""
"","null","html-keyboard-response","372","2.0.0","1472769","pwka4tvygb7","bigger","gazelle","disability","no","<div style=""font-size:60px;"">+</div>","null","","","","","","",""
"","576","image-keyboard-response","373","2.0.0","1473346","pwka4tvygb7","bigger","gazelle","disability","no","stimuli/32-Inongruent.jpg","m","","","","","right","m","true"
"","null","html-keyboard-response","374","2.0.0","1474259","pwka4tvygb7","bigger","gazelle","disability","no","<p>Correct!</p>","null","","","","","","",""
"","null","html-keyboard-response","375","2.0.0","1475260","pwka4tvygb7","bigger","gazelle","disability","no","<div style=""font-size:60px;"">+</div>","null","","","","","","",""
"","460","image-keyboard-response","376","2.0.0","1475721","pwka4tvygb7","bigger","gazelle","disability","no","stimuli/10-Inongruent.jpg","m","","","","","right","m","true"
"","null","html-keyboard-response","377","2.0.0","1476632","pwka4tvygb7","bigger","gazelle","disability","no","<p>Correct!</p>","null","","","","","","",""
"","null","html-keyboard-response","378","2.0.0","1477646","pwka4tvygb7","bigger","gazelle","disability","no","<div style=""font-size:60px;"">+</div>","null","","","","","","",""
"","430","image-keyboard-response","379","2.0.0","1478076","pwka4tvygb7","bigger","gazelle","disability","no","stimuli/31-Inongruent.jpg","m","","","","","right","m","true"
"","null","html-keyboard-response","380","2.0.0","1478979","pwka4tvygb7","bigger","gazelle","disability","no","<p>Correct!</p>","null","","","","","","",""
"","null","html-keyboard-response","381","2.0.0","1479980","pwka4tvygb7","bigger","gazelle","disability","no","<div style=""font-size:60px;"">+</div>","null","","","","","","",""
"","378","image-keyboard-response","382","2.0.0","1480359","pwka4tvygb7","bigger","gazelle","disability","no","stimuli/21-Congruent.jpg","z","","","","","left","z","true"
"","null","html-keyboard-response","383","2.0.0","1481275","pwka4tvygb7","bigger","gazelle","disability","no","<p>Correct!</p>","null","","","","","","",""
"","null","html-keyboard-response","384","2.0.0","1482290","pwka4tvygb7","bigger","gazelle","disability","no","<div style=""font-size:60px;"">+</div>","null","","","","","","",""
"","443","image-keyboard-response","385","2.0.0","1482734","pwka4tvygb7","bigger","gazelle","disability","no","stimuli/14-Congruent.jpg","z","","","","","left","z","true"
"","null","html-keyboard-response","386","2.0.0","1483646","pwka4tvygb7","bigger","gazelle","disability","no","<p>Correct!</p>","null","","","","","","",""
"","null","html-keyboard-response","387","2.0.0","1484650","pwka4tvygb7","bigger","gazelle","disability","no","<div style=""font-size:60px;"">+</div>","null","","","","","","",""
"","419","image-keyboard-response","388","2.0.0","1485070","pwka4tvygb7","bigger","gazelle","disability","no","stimuli/8-Inongruent.jpg","m","","","","","right","m","true"
"","null","html-keyboard-response","389","2.0.0","1485981","pwka4tvygb7","bigger","gazelle","disability","no","<p>Correct!</p>","null","","","","","","",""
"","null","html-keyboard-response","390","2.0.0","1486985","pwka4tvygb7","bigger","gazelle","disability","no","<div style=""font-size:60px;"">+</div>","null","","","","","","",""
"","439","image-keyboard-response","391","2.0.0","1487425","pwka4tvygb7","bigger","gazelle","disability","no","stimuli/9-Inongruent.jpg","m","","","","","right","m","true"
"","null","html-keyboard-response","392","2.0.0","1488331","pwka4tvygb7","bigger","gazelle","disability","no","<p>Correct!</p>","null","","","","","","",""
"","null","html-keyboard-response","393","2.0.0","1489335","pwka4tvygb7","bigger","gazelle","disability","no","<div style=""font-size:60px;"">+</div>","null","","","","","","",""
"","447","image-keyboard-response","394","2.0.0","1489782","pwka4tvygb7","bigger","gazelle","disability","no","stimuli/23-Inongruent.jpg","m","","","","","right","m","true"
"","null","html-keyboard-response","395","2.0.0","1490695","pwka4tvygb7","bigger","gazelle","disability","no","<p>Correct!</p>","null","","","","","","",""
"","null","html-keyboard-response","396","2.0.0","1491696","pwka4tvygb7","bigger","gazelle","disability","no","<div style=""font-size:60px;"">+</div>","null","","","","","","",""
"","686","image-keyboard-response","397","2.0.0","1492383","pwka4tvygb7","bigger","gazelle","disability","no","stimuli/16-Inongruent.jpg","m","","","","","right","m","true"
"","null","html-keyboard-response","398","2.0.0","1493295","pwka4tvygb7","bigger","gazelle","disability","no","<p>Correct!</p>","null","","","","","","",""
"","null","html-keyboard-response","399","2.0.0","1494311","pwka4tvygb7","bigger","gazelle","disability","no","<div style=""font-size:60px;"">+</div>","null","","","","","","",""
"","737","image-keyboard-response","400","2.0.0","1495048","pwka4tvygb7","bigger","gazelle","disability","no","stimuli/17-Congruent.jpg","z","","","","","left","z","true"
"","null","html-keyboard-response","401","2.0.0","1495955","pwka4tvygb7","bigger","gazelle","disability","no","<p>Correct!</p>","null","","","","","","",""
"","null","html-keyboard-response","402","2.0.0","1496969","pwka4tvygb7","bigger","gazelle","disability","no","<div style=""font-size:60px;"">+</div>","null","","","","","","",""
"","607","image-keyboard-response","403","2.0.0","1497576","pwka4tvygb7","bigger","gazelle","disability","no","stimuli/11-Inongruent.jpg","m","","","","","right","m","true"
"","null","html-keyboard-response","404","2.0.0","1498492","pwka4tvygb7","bigger","gazelle","disability","no","<p>Correct!</p>","null","","","","","","",""
"","null","html-keyboard-response","405","2.0.0","1499494","pwka4tvygb7","bigger","gazelle","disability","no","<div style=""font-size:60px;"">+</div>","null","","","","","","",""
"","833","image-keyboard-response","406","2.0.0","1500327","pwka4tvygb7","bigger","gazelle","disability","no","stimuli/36-Inongruent.jpg","m","","","","","right","m","true"
"","null","html-keyboard-response","407","2.0.0","1501241","pwka4tvygb7","bigger","gazelle","disability","no","<p>Correct!</p>","null","","","","","","",""
"","null","html-keyboard-response","408","2.0.0","1502243","pwka4tvygb7","bigger","gazelle","disability","no","<div style=""font-size:60px;"">+</div>","null","","","","","","",""
"","848","image-keyboard-response","409","2.0.0","1503091","pwka4tvygb7","bigger","gazelle","disability","no","stimuli/13-Inongruent.jpg","m","","","","","right","m","true"
"","null","html-keyboard-response","410","2.0.0","1504002","pwka4tvygb7","bigger","gazelle","disability","no","<p>Correct!</p>","null","","","","","","",""
"","null","html-keyboard-response","411","2.0.0","1505006","pwka4tvygb7","bigger","gazelle","disability","no","<div style=""font-size:60px;"">+</div>","null","","","","","","",""
"","357","image-keyboard-response","412","2.0.0","1505363","pwka4tvygb7","bigger","gazelle","disability","no","stimuli/25-Congruent.jpg","z","","","","","left","z","true"
"","null","html-keyboard-response","413","2.0.0","1506272","pwka4tvygb7","bigger","gazelle","disability","no","<p>Correct!</p>","null","","","","","","",""
"","null","html-keyboard-response","414","2.0.0","1507287","pwka4tvygb7","bigger","gazelle","disability","no","<div style=""font-size:60px;"">+</div>","null","","","","","","",""
"","556","image-keyboard-response","415","2.0.0","1507843","pwka4tvygb7","bigger","gazelle","disability","no","stimuli/22-Inongruent.jpg","m","","","","","right","m","true"
"","null","html-keyboard-response","416","2.0.0","1508745","pwka4tvygb7","bigger","gazelle","disability","no","<p>Correct!</p>","null","","","","","","",""
"","null","html-keyboard-response","417","2.0.0","1509751","pwka4tvygb7","bigger","gazelle","disability","no","<div style=""font-size:60px;"">+</div>","null","","","","","","",""
"","813","image-keyboard-response","418","2.0.0","1510565","pwka4tvygb7","bigger","gazelle","disability","no","stimuli/15-Congruent.jpg","z","","","","","left","z","true"
"","null","html-keyboard-response","419","2.0.0","1511473","pwka4tvygb7","bigger","gazelle","disability","no","<p>Correct!</p>","null","","","","","","",""
"","null","html-keyboard-response","420","2.0.0","1512475","pwka4tvygb7","bigger","gazelle","disability","no","<div style=""font-size:60px;"">+</div>","null","","","","","","",""
"","366","image-keyboard-response","421","2.0.0","1512841","pwka4tvygb7","bigger","gazelle","disability","no","stimuli/12-Inongruent.jpg","m","","","","","right","m","true"
"","null","html-keyboard-response","422","2.0.0","1513753","pwka4tvygb7","bigger","gazelle","disability","no","<p>Correct!</p>","null","","","","","","",""
"","null","html-keyboard-response","423","2.0.0","1514757","pwka4tvygb7","bigger","gazelle","disability","no","<div style=""font-size:60px;"">+</div>","null","","","","","","",""
"","615","image-keyboard-response","424","2.0.0","1515373","pwka4tvygb7","bigger","gazelle","disability","no","stimuli/1-Congruent.jpg","z","","","","","left","z","true"
"","null","html-keyboard-response","425","2.0.0","1516276","pwka4tvygb7","bigger","gazelle","disability","no","<p>Correct!</p>","null","","","","","","",""
"","null","html-keyboard-response","426","2.0.0","1517291","pwka4tvygb7","bigger","gazelle","disability","no","<div style=""font-size:60px;"">+</div>","null","","","","","","",""
"","405","image-keyboard-response","427","2.0.0","1517696","pwka4tvygb7","bigger","gazelle","disability","no","stimuli/29-Inongruent.jpg","m","","","","","right","m","true"
"","null","html-keyboard-response","428","2.0.0","1518603","pwka4tvygb7","bigger","gazelle","disability","no","<p>Correct!</p>","null","","","","","","",""
"","null","html-keyboard-response","429","2.0.0","1519618","pwka4tvygb7","bigger","gazelle","disability","no","<div style=""font-size:60px;"">+</div>","null","","","","","","",""
"","448","image-keyboard-response","430","2.0.0","1520067","pwka4tvygb7","bigger","gazelle","disability","no","stimuli/14-Inongruent.jpg","m","","","","","right","m","true"
"","null","html-keyboard-response","431","2.0.0","1520982","pwka4tvygb7","bigger","gazelle","disability","no","<p>Correct!</p>","null","","","","","","",""
"","null","html-keyboard-response","432","2.0.0","1521994","pwka4tvygb7","bigger","gazelle","disability","no","<div style=""font-size:60px;"">+</div>","null","","","","","","",""
"","436","image-keyboard-response","433","2.0.0","1522430","pwka4tvygb7","bigger","gazelle","disability","no","stimuli/13-Congruent.jpg","z","","","","","left","z","true"
"","null","html-keyboard-response","434","2.0.0","1523334","pwka4tvygb7","bigger","gazelle","disability","no","<p>Correct!</p>","null","","","","","","",""
"","null","html-keyboard-response","435","2.0.0","1524349","pwka4tvygb7","bigger","gazelle","disability","no","<div style=""font-size:60px;"">+</div>","null","","","","","","",""
"","379","image-keyboard-response","436","2.0.0","1524728","pwka4tvygb7","bigger","gazelle","disability","no","stimuli/24-Inongruent.jpg","m","","","","","right","m","true"
"","null","html-keyboard-response","437","2.0.0","1525634","pwka4tvygb7","bigger","gazelle","disability","no","<p>Correct!</p>","null","","","","","","",""
"","4393","html-keyboard-response","438","2.0.0","1530025","pwka4tvygb7","bigger","gazelle","disability","no","<p>You have completed the experiment!</p>
              <p>Your accuracy was: 98.61111111111111%.</p>
              <p>Thank you for participating.</p>
              <p>Press any key to continue.</p>","f","","","","","","",""
"","16552","survey-text","439","2.0.0","1546579","pwka4tvygb7","bigger","gazelle","disability","no","","{""participant_thoughts"":""disability""}","","","","","","",""
"","2960","survey-text","440","2.0.0","1549541","pwka4tvygb7","bigger","gazelle","disability","no","","{""participant_difficulties"":""no""}","","","","","","",""
"","2693","html-keyboard-response","441","2.0.0","1552234","pwka4tvygb7","bigger","gazelle","disability","no","<p>The purpose of this experiment is to determine if the real world size of a familiar object is automatically processed when viewed.</p><p>Thank you for participating!</p>"," ","","","","","","",""
