"success","rt","trial_type","trial_index","plugin_version","time_elapsed","random_id","condition","participant","participant_thoughts","participant_difficulties","stimulus","response","timeout","failed_images","failed_audio","failed_video","correct_response","correct_response_key","correct"
"true","3854","fullscreen","0","null","4860","pwz4c7mpd1d","bigger","flamingo","Test reaction/process time to distinguish different stimuli.","no","","","","","","","","",""
"","2645","html-keyboard-response","1","2.0.0","7506","pwz4c7mpd1d","bigger","flamingo","Test reaction/process time to distinguish different stimuli.","no","Welcome to the Size Stroop experiment. Press any key to begin."," ","","","","","","",""
"","null","html-keyboard-response","2","2.0.0","8509","pwz4c7mpd1d","bigger","flamingo","Test reaction/process time to distinguish different stimuli.","no","This trial will be in fullscreen mode.","null","","","","","","",""
"","3802","survey-text","3","2.0.0","12315","pwz4c7mpd1d","bigger","flamingo","Test reaction/process time to distinguish different stimuli.","no","","{""participant_id"":""flamingo""}","","","","","","",""
"","10508","html-keyboard-response","4","2.0.0","22824","pwz4c7mpd1d","bigger","flamingo","Test reaction/process time to distinguish different stimuli.","no","<p>In this experiment, two images will appear on the screen. Identify the <strong>larger</strong> images.</p>
              <p>If the image on the left is larger, press ""z"". If the image on the right is larger, press ""m"".</p>
              <p>Press any key to begin.</p>"," ","","","","","","",""
"true","","preload","5","2.0.0","23157","pwz4c7mpd1d","bigger","flamingo","Test reaction/process time to distinguish different stimuli.","no","","","false","[]","[]","[]","","",""
"","null","html-keyboard-response","6","2.0.0","24159","pwz4c7mpd1d","bigger","flamingo","Test reaction/process time to distinguish different stimuli.","no","<div style=""font-size:60px;"">+</div>","null","","","","","","",""
"","1142","image-keyboard-response","7","2.0.0","25304","pwz4c7mpd1d","bigger","flamingo","Test reaction/process time to distinguish different stimuli.","no","stimuli/20-Congruent.jpg","z","","","","","left","z","true"
"","null","html-keyboard-response","8","2.0.0","26206","pwz4c7mpd1d","bigger","flamingo","Test reaction/process time to distinguish different stimuli.","no","<p>Correct!</p>","null","","","","","","",""
"","null","html-keyboard-response","9","2.0.0","27209","pwz4c7mpd1d","bigger","flamingo","Test reaction/process time to distinguish different stimuli.","no","<div style=""font-size:60px;"">+</div>","null","","","","","","",""
"","763","image-keyboard-response","10","2.0.0","27974","pwz4c7mpd1d","bigger","flamingo","Test reaction/process time to distinguish different stimuli.","no","stimuli/16-Congruent.jpg","z","","","","","left","z","true"
"","null","html-keyboard-response","11","2.0.0","28877","pwz4c7mpd1d","bigger","flamingo","Test reaction/process time to distinguish different stimuli.","no","<p>Correct!</p>","null","","","","","","",""
"","null","html-keyboard-response","12","2.0.0","29879","pwz4c7mpd1d","bigger","flamingo","Test reaction/process time to distinguish different stimuli.","no","<div style=""font-size:60px;"">+</div>","null","","","","","","",""
"","1059","image-keyboard-response","13","2.0.0","30940","pwz4c7mpd1d","bigger","flamingo","Test reaction/process time to distinguish different stimuli.","no","stimuli/36-Inongruent.jpg","z","","","","","right","m","false"
"","null","html-keyboard-response","14","2.0.0","35942","pwz4c7mpd1d","bigger","flamingo","Test reaction/process time to distinguish different stimuli.","no","<p>Incorrect.</p><p>Remember to select the <b>bigger</b> image.</p><p>Continuing in 5 seconds...</p>","null","","","","","","",""
"","null","html-keyboard-response","15","2.0.0","36944","pwz4c7mpd1d","bigger","flamingo","Test reaction/process time to distinguish different stimuli.","no","<div style=""font-size:60px;"">+</div>","null","","","","","","",""
"","716","image-keyboard-response","16","2.0.0","37662","pwz4c7mpd1d","bigger","flamingo","Test reaction/process time to distinguish different stimuli.","no","stimuli/3-Inongruent.jpg","m","","","","","right","m","true"
"","null","html-keyboard-response","17","2.0.0","38563","pwz4c7mpd1d","bigger","flamingo","Test reaction/process time to distinguish different stimuli.","no","<p>Correct!</p>","null","","","","","","",""
"","null","html-keyboard-response","18","2.0.0","39566","pwz4c7mpd1d","bigger","flamingo","Test reaction/process time to distinguish different stimuli.","no","<div style=""font-size:60px;"">+</div>","null","","","","","","",""
"","709","image-keyboard-response","19","2.0.0","40276","pwz4c7mpd1d","bigger","flamingo","Test reaction/process time to distinguish different stimuli.","no","stimuli/14-Inongruent.jpg","m","","","","","right","m","true"
"","null","html-keyboard-response","20","2.0.0","41179","pwz4c7mpd1d","bigger","flamingo","Test reaction/process time to distinguish different stimuli.","no","<p>Correct!</p>","null","","","","","","",""
"","null","html-keyboard-response","21","2.0.0","42181","pwz4c7mpd1d","bigger","flamingo","Test reaction/process time to distinguish different stimuli.","no","<div style=""font-size:60px;"">+</div>","null","","","","","","",""
"","775","image-keyboard-response","22","2.0.0","42957","pwz4c7mpd1d","bigger","flamingo","Test reaction/process time to distinguish different stimuli.","no","stimuli/11-Inongruent.jpg","m","","","","","right","m","true"
"","null","html-keyboard-response","23","2.0.0","43860","pwz4c7mpd1d","bigger","flamingo","Test reaction/process time to distinguish different stimuli.","no","<p>Correct!</p>","null","","","","","","",""
"","null","html-keyboard-response","24","2.0.0","44862","pwz4c7mpd1d","bigger","flamingo","Test reaction/process time to distinguish different stimuli.","no","<div style=""font-size:60px;"">+</div>","null","","","","","","",""
"","517","image-keyboard-response","25","2.0.0","45381","pwz4c7mpd1d","bigger","flamingo","Test reaction/process time to distinguish different stimuli.","no","stimuli/30-Congruent.jpg","z","","","","","left","z","true"
"","null","html-keyboard-response","26","2.0.0","46283","pwz4c7mpd1d","bigger","flamingo","Test reaction/process time to distinguish different stimuli.","no","<p>Correct!</p>","null","","","","","","",""
"","null","html-keyboard-response","27","2.0.0","47285","pwz4c7mpd1d","bigger","flamingo","Test reaction/process time to distinguish different stimuli.","no","<div style=""font-size:60px;"">+</div>","null","","","","","","",""
"","447","image-keyboard-response","28","2.0.0","47732","pwz4c7mpd1d","bigger","flamingo","Test reaction/process time to distinguish different stimuli.","no","stimuli/29-Inongruent.jpg","m","","","","","right","m","true"
"","null","html-keyboard-response","29","2.0.0","48635","pwz4c7mpd1d","bigger","flamingo","Test reaction/process time to distinguish different stimuli.","no","<p>Correct!</p>","null","","","","","","",""
"","null","html-keyboard-response","30","2.0.0","49637","pwz4c7mpd1d","bigger","flamingo","Test reaction/process time to distinguish different stimuli.","no","<div style=""font-size:60px;"">+</div>","null","","","","","","",""
"","589","image-keyboard-response","31","2.0.0","50227","pwz4c7mpd1d","bigger","flamingo","Test reaction/process time to distinguish different stimuli.","no","stimuli/7-Inongruent.jpg","m","","","","","right","m","true"
"","null","html-keyboard-response","32","2.0.0","51130","pwz4c7mpd1d","bigger","flamingo","Test reaction/process time to distinguish different stimuli.","no","<p>Correct!</p>","null","","","","","","",""
"","null","html-keyboard-response","33","2.0.0","52132","pwz4c7mpd1d","bigger","flamingo","Test reaction/process time to distinguish different stimuli.","no","<div style=""font-size:60px;"">+</div>","null","","","","","","",""
"","738","image-keyboard-response","34","2.0.0","52871","pwz4c7mpd1d","bigger","flamingo","Test reaction/process time to distinguish different stimuli.","no","stimuli/22-Congruent.jpg","z","","","","","left","z","true"
"","null","html-keyboard-response","35","2.0.0","53773","pwz4c7mpd1d","bigger","flamingo","Test reaction/process time to distinguish different stimuli.","no","<p>Correct!</p>","null","","","","","","",""
"","null","html-keyboard-response","36","2.0.0","54775","pwz4c7mpd1d","bigger","flamingo","Test reaction/process time to distinguish different stimuli.","no","<div style=""font-size:60px;"">+</div>","null","","","","","","",""
"","745","image-keyboard-response","37","2.0.0","55522","pwz4c7mpd1d","bigger","flamingo","Test reaction/process time to distinguish different stimuli.","no","stimuli/32-Inongruent.jpg","m","","","","","right","m","true"
"","null","html-keyboard-response","38","2.0.0","56425","pwz4c7mpd1d","bigger","flamingo","Test reaction/process time to distinguish different stimuli.","no","<p>Correct!</p>","null","","","","","","",""
"","null","html-keyboard-response","39","2.0.0","57427","pwz4c7mpd1d","bigger","flamingo","Test reaction/process time to distinguish different stimuli.","no","<div style=""font-size:60px;"">+</div>","null","","","","","","",""
"","621","image-keyboard-response","40","2.0.0","58049","pwz4c7mpd1d","bigger","flamingo","Test reaction/process time to distinguish different stimuli.","no","stimuli/31-Congruent.jpg","z","","","","","left","z","true"
"","null","html-keyboard-response","41","2.0.0","58952","pwz4c7mpd1d","bigger","flamingo","Test reaction/process time to distinguish different stimuli.","no","<p>Correct!</p>","null","","","","","","",""
"","null","html-keyboard-response","42","2.0.0","59954","pwz4c7mpd1d","bigger","flamingo","Test reaction/process time to distinguish different stimuli.","no","<div style=""font-size:60px;"">+</div>","null","","","","","","",""
"","977","image-keyboard-response","43","2.0.0","60932","pwz4c7mpd1d","bigger","flamingo","Test reaction/process time to distinguish different stimuli.","no","stimuli/12-Inongruent.jpg","m","","","","","right","m","true"
"","null","html-keyboard-response","44","2.0.0","61835","pwz4c7mpd1d","bigger","flamingo","Test reaction/process time to distinguish different stimuli.","no","<p>Correct!</p>","null","","","","","","",""
"","null","html-keyboard-response","45","2.0.0","62838","pwz4c7mpd1d","bigger","flamingo","Test reaction/process time to distinguish different stimuli.","no","<div style=""font-size:60px;"">+</div>","null","","","","","","",""
"","696","image-keyboard-response","46","2.0.0","63535","pwz4c7mpd1d","bigger","flamingo","Test reaction/process time to distinguish different stimuli.","no","stimuli/34-Inongruent.jpg","m","","","","","right","m","true"
"","null","html-keyboard-response","47","2.0.0","64437","pwz4c7mpd1d","bigger","flamingo","Test reaction/process time to distinguish different stimuli.","no","<p>Correct!</p>","null","","","","","","",""
"","null","html-keyboard-response","48","2.0.0","65440","pwz4c7mpd1d","bigger","flamingo","Test reaction/process time to distinguish different stimuli.","no","<div style=""font-size:60px;"">+</div>","null","","","","","","",""
"","636","image-keyboard-response","49","2.0.0","66077","pwz4c7mpd1d","bigger","flamingo","Test reaction/process time to distinguish different stimuli.","no","stimuli/31-Congruent.jpg","z","","","","","left","z","true"
"","null","html-keyboard-response","50","2.0.0","66979","pwz4c7mpd1d","bigger","flamingo","Test reaction/process time to distinguish different stimuli.","no","<p>Correct!</p>","null","","","","","","",""
"","null","html-keyboard-response","51","2.0.0","67982","pwz4c7mpd1d","bigger","flamingo","Test reaction/process time to distinguish different stimuli.","no","<div style=""font-size:60px;"">+</div>","null","","","","","","",""
"","698","image-keyboard-response","52","2.0.0","68681","pwz4c7mpd1d","bigger","flamingo","Test reaction/process time to distinguish different stimuli.","no","stimuli/3-Congruent.jpg","z","","","","","left","z","true"
"","null","html-keyboard-response","53","2.0.0","69583","pwz4c7mpd1d","bigger","flamingo","Test reaction/process time to distinguish different stimuli.","no","<p>Correct!</p>","null","","","","","","",""
"","null","html-keyboard-response","54","2.0.0","70586","pwz4c7mpd1d","bigger","flamingo","Test reaction/process time to distinguish different stimuli.","no","<div style=""font-size:60px;"">+</div>","null","","","","","","",""
"","499","image-keyboard-response","55","2.0.0","71087","pwz4c7mpd1d","bigger","flamingo","Test reaction/process time to distinguish different stimuli.","no","stimuli/4-Congruent.jpg","z","","","","","left","z","true"
"","null","html-keyboard-response","56","2.0.0","71988","pwz4c7mpd1d","bigger","flamingo","Test reaction/process time to distinguish different stimuli.","no","<p>Correct!</p>","null","","","","","","",""
"","null","html-keyboard-response","57","2.0.0","72990","pwz4c7mpd1d","bigger","flamingo","Test reaction/process time to distinguish different stimuli.","no","<div style=""font-size:60px;"">+</div>","null","","","","","","",""
"","506","image-keyboard-response","58","2.0.0","73497","pwz4c7mpd1d","bigger","flamingo","Test reaction/process time to distinguish different stimuli.","no","stimuli/28-Inongruent.jpg","m","","","","","right","m","true"
"","null","html-keyboard-response","59","2.0.0","74399","pwz4c7mpd1d","bigger","flamingo","Test reaction/process time to distinguish different stimuli.","no","<p>Correct!</p>","null","","","","","","",""
"","null","html-keyboard-response","60","2.0.0","75401","pwz4c7mpd1d","bigger","flamingo","Test reaction/process time to distinguish different stimuli.","no","<div style=""font-size:60px;"">+</div>","null","","","","","","",""
"","593","image-keyboard-response","61","2.0.0","75995","pwz4c7mpd1d","bigger","flamingo","Test reaction/process time to distinguish different stimuli.","no","stimuli/10-Congruent.jpg","z","","","","","left","z","true"
"","null","html-keyboard-response","62","2.0.0","76897","pwz4c7mpd1d","bigger","flamingo","Test reaction/process time to distinguish different stimuli.","no","<p>Correct!</p>","null","","","","","","",""
"","null","html-keyboard-response","63","2.0.0","77900","pwz4c7mpd1d","bigger","flamingo","Test reaction/process time to distinguish different stimuli.","no","<div style=""font-size:60px;"">+</div>","null","","","","","","",""
"","587","image-keyboard-response","64","2.0.0","78488","pwz4c7mpd1d","bigger","flamingo","Test reaction/process time to distinguish different stimuli.","no","stimuli/29-Inongruent.jpg","m","","","","","right","m","true"
"","null","html-keyboard-response","65","2.0.0","79390","pwz4c7mpd1d","bigger","flamingo","Test reaction/process time to distinguish different stimuli.","no","<p>Correct!</p>","null","","","","","","",""
"","null","html-keyboard-response","66","2.0.0","80393","pwz4c7mpd1d","bigger","flamingo","Test reaction/process time to distinguish different stimuli.","no","<div style=""font-size:60px;"">+</div>","null","","","","","","",""
"","606","image-keyboard-response","67","2.0.0","81000","pwz4c7mpd1d","bigger","flamingo","Test reaction/process time to distinguish different stimuli.","no","stimuli/12-Inongruent.jpg","m","","","","","right","m","true"
"","null","html-keyboard-response","68","2.0.0","81902","pwz4c7mpd1d","bigger","flamingo","Test reaction/process time to distinguish different stimuli.","no","<p>Correct!</p>","null","","","","","","",""
"","null","html-keyboard-response","69","2.0.0","82904","pwz4c7mpd1d","bigger","flamingo","Test reaction/process time to distinguish different stimuli.","no","<div style=""font-size:60px;"">+</div>","null","","","","","","",""
"","544","image-keyboard-response","70","2.0.0","83448","pwz4c7mpd1d","bigger","flamingo","Test reaction/process time to distinguish different stimuli.","no","stimuli/32-Congruent.jpg","z","","","","","left","z","true"
"","null","html-keyboard-response","71","2.0.0","84350","pwz4c7mpd1d","bigger","flamingo","Test reaction/process time to distinguish different stimuli.","no","<p>Correct!</p>","null","","","","","","",""
"","null","html-keyboard-response","72","2.0.0","85352","pwz4c7mpd1d","bigger","flamingo","Test reaction/process time to distinguish different stimuli.","no","<div style=""font-size:60px;"">+</div>","null","","","","","","",""
"","428","image-keyboard-response","73","2.0.0","85782","pwz4c7mpd1d","bigger","flamingo","Test reaction/process time to distinguish different stimuli.","no","stimuli/25-Congruent.jpg","z","","","","","left","z","true"
"","null","html-keyboard-response","74","2.0.0","86684","pwz4c7mpd1d","bigger","flamingo","Test reaction/process time to distinguish different stimuli.","no","<p>Correct!</p>","null","","","","","","",""
"","null","html-keyboard-response","75","2.0.0","87686","pwz4c7mpd1d","bigger","flamingo","Test reaction/process time to distinguish different stimuli.","no","<div style=""font-size:60px;"">+</div>","null","","","","","","",""
"","379","image-keyboard-response","76","2.0.0","88066","pwz4c7mpd1d","bigger","flamingo","Test reaction/process time to distinguish different stimuli.","no","stimuli/24-Inongruent.jpg","m","","","","","right","m","true"
"","null","html-keyboard-response","77","2.0.0","88968","pwz4c7mpd1d","bigger","flamingo","Test reaction/process time to distinguish different stimuli.","no","<p>Correct!</p>","null","","","","","","",""
"","null","html-keyboard-response","78","2.0.0","89970","pwz4c7mpd1d","bigger","flamingo","Test reaction/process time to distinguish different stimuli.","no","<div style=""font-size:60px;"">+</div>","null","","","","","","",""
"","352","image-keyboard-response","79","2.0.0","90323","pwz4c7mpd1d","bigger","flamingo","Test reaction/process time to distinguish different stimuli.","no","stimuli/30-Congruent.jpg","z","","","","","left","z","true"
"","null","html-keyboard-response","80","2.0.0","91225","pwz4c7mpd1d","bigger","flamingo","Test reaction/process time to distinguish different stimuli.","no","<p>Correct!</p>","null","","","","","","",""
"","null","html-keyboard-response","81","2.0.0","92228","pwz4c7mpd1d","bigger","flamingo","Test reaction/process time to distinguish different stimuli.","no","<div style=""font-size:60px;"">+</div>","null","","","","","","",""
"","434","image-keyboard-response","82","2.0.0","92663","pwz4c7mpd1d","bigger","flamingo","Test reaction/process time to distinguish different stimuli.","no","stimuli/8-Congruent.jpg","z","","","","","left","z","true"
"","null","html-keyboard-response","83","2.0.0","93564","pwz4c7mpd1d","bigger","flamingo","Test reaction/process time to distinguish different stimuli.","no","<p>Correct!</p>","null","","","","","","",""
"","null","html-keyboard-response","84","2.0.0","94567","pwz4c7mpd1d","bigger","flamingo","Test reaction/process time to distinguish different stimuli.","no","<div style=""font-size:60px;"">+</div>","null","","","","","","",""
"","424","image-keyboard-response","85","2.0.0","94993","pwz4c7mpd1d","bigger","flamingo","Test reaction/process time to distinguish different stimuli.","no","stimuli/31-Inongruent.jpg","m","","","","","right","m","true"
"","null","html-keyboard-response","86","2.0.0","95895","pwz4c7mpd1d","bigger","flamingo","Test reaction/process time to distinguish different stimuli.","no","<p>Correct!</p>","null","","","","","","",""
"","null","html-keyboard-response","87","2.0.0","96898","pwz4c7mpd1d","bigger","flamingo","Test reaction/process time to distinguish different stimuli.","no","<div style=""font-size:60px;"">+</div>","null","","","","","","",""
"","388","image-keyboard-response","88","2.0.0","97287","pwz4c7mpd1d","bigger","flamingo","Test reaction/process time to distinguish different stimuli.","no","stimuli/27-Congruent.jpg","z","","","","","left","z","true"
"","null","html-keyboard-response","89","2.0.0","98190","pwz4c7mpd1d","bigger","flamingo","Test reaction/process time to distinguish different stimuli.","no","<p>Correct!</p>","null","","","","","","",""
"","null","html-keyboard-response","90","2.0.0","99192","pwz4c7mpd1d","bigger","flamingo","Test reaction/process time to distinguish different stimuli.","no","<div style=""font-size:60px;"">+</div>","null","","","","","","",""
"","785","image-keyboard-response","91","2.0.0","99978","pwz4c7mpd1d","bigger","flamingo","Test reaction/process time to distinguish different stimuli.","no","stimuli/9-Inongruent.jpg","z","","","","","right","m","false"
"","1584","html-keyboard-response","92","2.0.0","101563","pwz4c7mpd1d","bigger","flamingo","Test reaction/process time to distinguish different stimuli.","no","<p>Incorrect.</p><p>Remember to select the <b>bigger</b> image.</p><p>Continuing in 5 seconds...</p>","m","","","","","","",""
"","null","html-keyboard-response","93","2.0.0","102564","pwz4c7mpd1d","bigger","flamingo","Test reaction/process time to distinguish different stimuli.","no","<div style=""font-size:60px;"">+</div>","null","","","","","","",""
"","699","image-keyboard-response","94","2.0.0","103264","pwz4c7mpd1d","bigger","flamingo","Test reaction/process time to distinguish different stimuli.","no","stimuli/21-Inongruent.jpg","m","","","","","right","m","true"
"","null","html-keyboard-response","95","2.0.0","104166","pwz4c7mpd1d","bigger","flamingo","Test reaction/process time to distinguish different stimuli.","no","<p>Correct!</p>","null","","","","","","",""
"","null","html-keyboard-response","96","2.0.0","105168","pwz4c7mpd1d","bigger","flamingo","Test reaction/process time to distinguish different stimuli.","no","<div style=""font-size:60px;"">+</div>","null","","","","","","",""
"","720","image-keyboard-response","97","2.0.0","105890","pwz4c7mpd1d","bigger","flamingo","Test reaction/process time to distinguish different stimuli.","no","stimuli/8-Congruent.jpg","z","","","","","left","z","true"
"","null","html-keyboard-response","98","2.0.0","106792","pwz4c7mpd1d","bigger","flamingo","Test reaction/process time to distinguish different stimuli.","no","<p>Correct!</p>","null","","","","","","",""
"","null","html-keyboard-response","99","2.0.0","107795","pwz4c7mpd1d","bigger","flamingo","Test reaction/process time to distinguish different stimuli.","no","<div style=""font-size:60px;"">+</div>","null","","","","","","",""
"","436","image-keyboard-response","100","2.0.0","108231","pwz4c7mpd1d","bigger","flamingo","Test reaction/process time to distinguish different stimuli.","no","stimuli/10-Congruent.jpg","z","","","","","left","z","true"
"","null","html-keyboard-response","101","2.0.0","109133","pwz4c7mpd1d","bigger","flamingo","Test reaction/process time to distinguish different stimuli.","no","<p>Correct!</p>","null","","","","","","",""
"","null","html-keyboard-response","102","2.0.0","110135","pwz4c7mpd1d","bigger","flamingo","Test reaction/process time to distinguish different stimuli.","no","<div style=""font-size:60px;"">+</div>","null","","","","","","",""
"","580","image-keyboard-response","103","2.0.0","110716","pwz4c7mpd1d","bigger","flamingo","Test reaction/process time to distinguish different stimuli.","no","stimuli/5-Inongruent.jpg","m","","","","","right","m","true"
"","null","html-keyboard-response","104","2.0.0","111619","pwz4c7mpd1d","bigger","flamingo","Test reaction/process time to distinguish different stimuli.","no","<p>Correct!</p>","null","","","","","","",""
"","null","html-keyboard-response","105","2.0.0","112621","pwz4c7mpd1d","bigger","flamingo","Test reaction/process time to distinguish different stimuli.","no","<div style=""font-size:60px;"">+</div>","null","","","","","","",""
"","502","image-keyboard-response","106","2.0.0","113124","pwz4c7mpd1d","bigger","flamingo","Test reaction/process time to distinguish different stimuli.","no","stimuli/25-Congruent.jpg","z","","","","","left","z","true"
"","null","html-keyboard-response","107","2.0.0","114027","pwz4c7mpd1d","bigger","flamingo","Test reaction/process time to distinguish different stimuli.","no","<p>Correct!</p>","null","","","","","","",""
"","null","html-keyboard-response","108","2.0.0","115029","pwz4c7mpd1d","bigger","flamingo","Test reaction/process time to distinguish different stimuli.","no","<div style=""font-size:60px;"">+</div>","null","","","","","","",""
"","689","image-keyboard-response","109","2.0.0","115719","pwz4c7mpd1d","bigger","flamingo","Test reaction/process time to distinguish different stimuli.","no","stimuli/36-Inongruent.jpg","m","","","","","right","m","true"
"","null","html-keyboard-response","110","2.0.0","116621","pwz4c7mpd1d","bigger","flamingo","Test reaction/process time to distinguish different stimuli.","no","<p>Correct!</p>","null","","","","","","",""
"","null","html-keyboard-response","111","2.0.0","117624","pwz4c7mpd1d","bigger","flamingo","Test reaction/process time to distinguish different stimuli.","no","<div style=""font-size:60px;"">+</div>","null","","","","","","",""
"","527","image-keyboard-response","112","2.0.0","118153","pwz4c7mpd1d","bigger","flamingo","Test reaction/process time to distinguish different stimuli.","no","stimuli/30-Inongruent.jpg","m","","","","","right","m","true"
"","null","html-keyboard-response","113","2.0.0","119055","pwz4c7mpd1d","bigger","flamingo","Test reaction/process time to distinguish different stimuli.","no","<p>Correct!</p>","null","","","","","","",""
"","null","html-keyboard-response","114","2.0.0","120058","pwz4c7mpd1d","bigger","flamingo","Test reaction/process time to distinguish different stimuli.","no","<div style=""font-size:60px;"">+</div>","null","","","","","","",""
"","494","image-keyboard-response","115","2.0.0","120552","pwz4c7mpd1d","bigger","flamingo","Test reaction/process time to distinguish different stimuli.","no","stimuli/35-Inongruent.jpg","m","","","","","right","m","true"
"","null","html-keyboard-response","116","2.0.0","121455","pwz4c7mpd1d","bigger","flamingo","Test reaction/process time to distinguish different stimuli.","no","<p>Correct!</p>","null","","","","","","",""
"","null","html-keyboard-response","117","2.0.0","122457","pwz4c7mpd1d","bigger","flamingo","Test reaction/process time to distinguish different stimuli.","no","<div style=""font-size:60px;"">+</div>","null","","","","","","",""
"","490","image-keyboard-response","118","2.0.0","122948","pwz4c7mpd1d","bigger","flamingo","Test reaction/process time to distinguish different stimuli.","no","stimuli/18-Inongruent.jpg","m","","","","","right","m","true"
"","null","html-keyboard-response","119","2.0.0","123850","pwz4c7mpd1d","bigger","flamingo","Test reaction/process time to distinguish different stimuli.","no","<p>Correct!</p>","null","","","","","","",""
"","null","html-keyboard-response","120","2.0.0","124853","pwz4c7mpd1d","bigger","flamingo","Test reaction/process time to distinguish different stimuli.","no","<div style=""font-size:60px;"">+</div>","null","","","","","","",""
"","513","image-keyboard-response","121","2.0.0","125367","pwz4c7mpd1d","bigger","flamingo","Test reaction/process time to distinguish different stimuli.","no","stimuli/4-Inongruent.jpg","m","","","","","right","m","true"
"","null","html-keyboard-response","122","2.0.0","126269","pwz4c7mpd1d","bigger","flamingo","Test reaction/process time to distinguish different stimuli.","no","<p>Correct!</p>","null","","","","","","",""
"","null","html-keyboard-response","123","2.0.0","127272","pwz4c7mpd1d","bigger","flamingo","Test reaction/process time to distinguish different stimuli.","no","<div style=""font-size:60px;"">+</div>","null","","","","","","",""
"","849","image-keyboard-response","124","2.0.0","128122","pwz4c7mpd1d","bigger","flamingo","Test reaction/process time to distinguish different stimuli.","no","stimuli/17-Congruent.jpg","z","","","","","left","z","true"
"","null","html-keyboard-response","125","2.0.0","129024","pwz4c7mpd1d","bigger","flamingo","Test reaction/process time to distinguish different stimuli.","no","<p>Correct!</p>","null","","","","","","",""
"","null","html-keyboard-response","126","2.0.0","130026","pwz4c7mpd1d","bigger","flamingo","Test reaction/process time to distinguish different stimuli.","no","<div style=""font-size:60px;"">+</div>","null","","","","","","",""
"","731","image-keyboard-response","127","2.0.0","130759","pwz4c7mpd1d","bigger","flamingo","Test reaction/process time to distinguish different stimuli.","no","stimuli/18-Congruent.jpg","z","","","","","left","z","true"
"","null","html-keyboard-response","128","2.0.0","131660","pwz4c7mpd1d","bigger","flamingo","Test reaction/process time to distinguish different stimuli.","no","<p>Correct!</p>","null","","","","","","",""
"","null","html-keyboard-response","129","2.0.0","132663","pwz4c7mpd1d","bigger","flamingo","Test reaction/process time to distinguish different stimuli.","no","<div style=""font-size:60px;"">+</div>","null","","","","","","",""
"","566","image-keyboard-response","130","2.0.0","133230","pwz4c7mpd1d","bigger","flamingo","Test reaction/process time to distinguish different stimuli.","no","stimuli/16-Inongruent.jpg","m","","","","","right","m","true"
"","null","html-keyboard-response","131","2.0.0","134133","pwz4c7mpd1d","bigger","flamingo","Test reaction/process time to distinguish different stimuli.","no","<p>Correct!</p>","null","","","","","","",""
"","null","html-keyboard-response","132","2.0.0","135136","pwz4c7mpd1d","bigger","flamingo","Test reaction/process time to distinguish different stimuli.","no","<div style=""font-size:60px;"">+</div>","null","","","","","","",""
"","459","image-keyboard-response","133","2.0.0","135597","pwz4c7mpd1d","bigger","flamingo","Test reaction/process time to distinguish different stimuli.","no","stimuli/15-Inongruent.jpg","m","","","","","right","m","true"
"","null","html-keyboard-response","134","2.0.0","136499","pwz4c7mpd1d","bigger","flamingo","Test reaction/process time to distinguish different stimuli.","no","<p>Correct!</p>","null","","","","","","",""
"","null","html-keyboard-response","135","2.0.0","137501","pwz4c7mpd1d","bigger","flamingo","Test reaction/process time to distinguish different stimuli.","no","<div style=""font-size:60px;"">+</div>","null","","","","","","",""
"","550","image-keyboard-response","136","2.0.0","138052","pwz4c7mpd1d","bigger","flamingo","Test reaction/process time to distinguish different stimuli.","no","stimuli/28-Congruent.jpg","z","","","","","left","z","true"
"","null","html-keyboard-response","137","2.0.0","138953","pwz4c7mpd1d","bigger","flamingo","Test reaction/process time to distinguish different stimuli.","no","<p>Correct!</p>","null","","","","","","",""
"","null","html-keyboard-response","138","2.0.0","139956","pwz4c7mpd1d","bigger","flamingo","Test reaction/process time to distinguish different stimuli.","no","<div style=""font-size:60px;"">+</div>","null","","","","","","",""
"","508","image-keyboard-response","139","2.0.0","140464","pwz4c7mpd1d","bigger","flamingo","Test reaction/process time to distinguish different stimuli.","no","stimuli/12-Congruent.jpg","z","","","","","left","z","true"
"","null","html-keyboard-response","140","2.0.0","141365","pwz4c7mpd1d","bigger","flamingo","Test reaction/process time to distinguish different stimuli.","no","<p>Correct!</p>","null","","","","","","",""
"","null","html-keyboard-response","141","2.0.0","142368","pwz4c7mpd1d","bigger","flamingo","Test reaction/process time to distinguish different stimuli.","no","<div style=""font-size:60px;"">+</div>","null","","","","","","",""
"","453","image-keyboard-response","142","2.0.0","142821","pwz4c7mpd1d","bigger","flamingo","Test reaction/process time to distinguish different stimuli.","no","stimuli/33-Inongruent.jpg","m","","","","","right","m","true"
"","null","html-keyboard-response","143","2.0.0","143723","pwz4c7mpd1d","bigger","flamingo","Test reaction/process time to distinguish different stimuli.","no","<p>Correct!</p>","null","","","","","","",""
"","null","html-keyboard-response","144","2.0.0","144724","pwz4c7mpd1d","bigger","flamingo","Test reaction/process time to distinguish different stimuli.","no","<div style=""font-size:60px;"">+</div>","null","","","","","","",""
"","531","image-keyboard-response","145","2.0.0","145256","pwz4c7mpd1d","bigger","flamingo","Test reaction/process time to distinguish different stimuli.","no","stimuli/11-Inongruent.jpg","m","","","","","right","m","true"
"","null","html-keyboard-response","146","2.0.0","146156","pwz4c7mpd1d","bigger","flamingo","Test reaction/process time to distinguish different stimuli.","no","<p>Correct!</p>","null","","","","","","",""
"","null","html-keyboard-response","147","2.0.0","147158","pwz4c7mpd1d","bigger","flamingo","Test reaction/process time to distinguish different stimuli.","no","<div style=""font-size:60px;"">+</div>","null","","","","","","",""
"","476","image-keyboard-response","148","2.0.0","147635","pwz4c7mpd1d","bigger","flamingo","Test reaction/process time to distinguish different stimuli.","no","stimuli/35-Congruent.jpg","z","","","","","left","z","true"
"","null","html-keyboard-response","149","2.0.0","148537","pwz4c7mpd1d","bigger","flamingo","Test reaction/process time to distinguish different stimuli.","no","<p>Correct!</p>","null","","","","","","",""
"","null","html-keyboard-response","150","2.0.0","149538","pwz4c7mpd1d","bigger","flamingo","Test reaction/process time to distinguish different stimuli.","no","<div style=""font-size:60px;"">+</div>","null","","","","","","",""
"","571","image-keyboard-response","151","2.0.0","150110","pwz4c7mpd1d","bigger","flamingo","Test reaction/process time to distinguish different stimuli.","no","stimuli/35-Inongruent.jpg","m","","","","","right","m","true"
"","null","html-keyboard-response","152","2.0.0","151011","pwz4c7mpd1d","bigger","flamingo","Test reaction/process time to distinguish different stimuli.","no","<p>Correct!</p>","null","","","","","","",""
"","null","html-keyboard-response","153","2.0.0","152012","pwz4c7mpd1d","bigger","flamingo","Test reaction/process time to distinguish different stimuli.","no","<div style=""font-size:60px;"">+</div>","null","","","","","","",""
"","1195","image-keyboard-response","154","2.0.0","153209","pwz4c7mpd1d","bigger","flamingo","Test reaction/process time to distinguish different stimuli.","no","stimuli/5-Congruent.jpg","z","","","","","left","z","true"
"","null","html-keyboard-response","155","2.0.0","154110","pwz4c7mpd1d","bigger","flamingo","Test reaction/process time to distinguish different stimuli.","no","<p>Correct!</p>","null","","","","","","",""
"","null","html-keyboard-response","156","2.0.0","155113","pwz4c7mpd1d","bigger","flamingo","Test reaction/process time to distinguish different stimuli.","no","<div style=""font-size:60px;"">+</div>","null","","","","","","",""
"","488","image-keyboard-response","157","2.0.0","155602","pwz4c7mpd1d","bigger","flamingo","Test reaction/process time to distinguish different stimuli.","no","stimuli/24-Inongruent.jpg","m","","","","","right","m","true"
"","null","html-keyboard-response","158","2.0.0","156504","pwz4c7mpd1d","bigger","flamingo","Test reaction/process time to distinguish different stimuli.","no","<p>Correct!</p>","null","","","","","","",""
"","null","html-keyboard-response","159","2.0.0","157507","pwz4c7mpd1d","bigger","flamingo","Test reaction/process time to distinguish different stimuli.","no","<div style=""font-size:60px;"">+</div>","null","","","","","","",""
"","432","image-keyboard-response","160","2.0.0","157940","pwz4c7mpd1d","bigger","flamingo","Test reaction/process time to distinguish different stimuli.","no","stimuli/1-Inongruent.jpg","m","","","","","right","m","true"
"","null","html-keyboard-response","161","2.0.0","158843","pwz4c7mpd1d","bigger","flamingo","Test reaction/process time to distinguish different stimuli.","no","<p>Correct!</p>","null","","","","","","",""
"","null","html-keyboard-response","162","2.0.0","159844","pwz4c7mpd1d","bigger","flamingo","Test reaction/process time to distinguish different stimuli.","no","<div style=""font-size:60px;"">+</div>","null","","","","","","",""
"","556","image-keyboard-response","163","2.0.0","160401","pwz4c7mpd1d","bigger","flamingo","Test reaction/process time to distinguish different stimuli.","no","stimuli/18-Congruent.jpg","z","","","","","left","z","true"
"","null","html-keyboard-response","164","2.0.0","161303","pwz4c7mpd1d","bigger","flamingo","Test reaction/process time to distinguish different stimuli.","no","<p>Correct!</p>","null","","","","","","",""
"","null","html-keyboard-response","165","2.0.0","162305","pwz4c7mpd1d","bigger","flamingo","Test reaction/process time to distinguish different stimuli.","no","<div style=""font-size:60px;"">+</div>","null","","","","","","",""
"","569","image-keyboard-response","166","2.0.0","162876","pwz4c7mpd1d","bigger","flamingo","Test reaction/process time to distinguish different stimuli.","no","stimuli/15-Congruent.jpg","z","","","","","left","z","true"
"","null","html-keyboard-response","167","2.0.0","163777","pwz4c7mpd1d","bigger","flamingo","Test reaction/process time to distinguish different stimuli.","no","<p>Correct!</p>","null","","","","","","",""
"","null","html-keyboard-response","168","2.0.0","164780","pwz4c7mpd1d","bigger","flamingo","Test reaction/process time to distinguish different stimuli.","no","<div style=""font-size:60px;"">+</div>","null","","","","","","",""
"","538","image-keyboard-response","169","2.0.0","165318","pwz4c7mpd1d","bigger","flamingo","Test reaction/process time to distinguish different stimuli.","no","stimuli/4-Inongruent.jpg","m","","","","","right","m","true"
"","null","html-keyboard-response","170","2.0.0","166221","pwz4c7mpd1d","bigger","flamingo","Test reaction/process time to distinguish different stimuli.","no","<p>Correct!</p>","null","","","","","","",""
"","null","html-keyboard-response","171","2.0.0","167224","pwz4c7mpd1d","bigger","flamingo","Test reaction/process time to distinguish different stimuli.","no","<div style=""font-size:60px;"">+</div>","null","","","","","","",""
"","487","image-keyboard-response","172","2.0.0","167712","pwz4c7mpd1d","bigger","flamingo","Test reaction/process time to distinguish different stimuli.","no","stimuli/24-Congruent.jpg","z","","","","","left","z","true"
"","319","html-keyboard-response","173","2.0.0","168031","pwz4c7mpd1d","bigger","flamingo","Test reaction/process time to distinguish different stimuli.","no","<p>Correct!</p>","Enter","","","","","","",""
"","null","html-keyboard-response","174","2.0.0","169032","pwz4c7mpd1d","bigger","flamingo","Test reaction/process time to distinguish different stimuli.","no","<div style=""font-size:60px;"">+</div>","null","","","","","","",""
"","555","image-keyboard-response","175","2.0.0","169589","pwz4c7mpd1d","bigger","flamingo","Test reaction/process time to distinguish different stimuli.","no","stimuli/34-Inongruent.jpg","m","","","","","right","m","true"
"","null","html-keyboard-response","176","2.0.0","170491","pwz4c7mpd1d","bigger","flamingo","Test reaction/process time to distinguish different stimuli.","no","<p>Correct!</p>","null","","","","","","",""
"","null","html-keyboard-response","177","2.0.0","171493","pwz4c7mpd1d","bigger","flamingo","Test reaction/process time to distinguish different stimuli.","no","<div style=""font-size:60px;"">+</div>","null","","","","","","",""
"","431","image-keyboard-response","178","2.0.0","171925","pwz4c7mpd1d","bigger","flamingo","Test reaction/process time to distinguish different stimuli.","no","stimuli/6-Congruent.jpg","z","","","","","left","z","true"
"","null","html-keyboard-response","179","2.0.0","172828","pwz4c7mpd1d","bigger","flamingo","Test reaction/process time to distinguish different stimuli.","no","<p>Correct!</p>","null","","","","","","",""
"","null","html-keyboard-response","180","2.0.0","173830","pwz4c7mpd1d","bigger","flamingo","Test reaction/process time to distinguish different stimuli.","no","<div style=""font-size:60px;"">+</div>","null","","","","","","",""
"","504","image-keyboard-response","181","2.0.0","174335","pwz4c7mpd1d","bigger","flamingo","Test reaction/process time to distinguish different stimuli.","no","stimuli/16-Inongruent.jpg","m","","","","","right","m","true"
"","null","html-keyboard-response","182","2.0.0","175237","pwz4c7mpd1d","bigger","flamingo","Test reaction/process time to distinguish different stimuli.","no","<p>Correct!</p>","null","","","","","","",""
"","null","html-keyboard-response","183","2.0.0","176240","pwz4c7mpd1d","bigger","flamingo","Test reaction/process time to distinguish different stimuli.","no","<div style=""font-size:60px;"">+</div>","null","","","","","","",""
"","818","image-keyboard-response","184","2.0.0","177059","pwz4c7mpd1d","bigger","flamingo","Test reaction/process time to distinguish different stimuli.","no","stimuli/27-Inongruent.jpg","m","","","","","right","m","true"
"","null","html-keyboard-response","185","2.0.0","177962","pwz4c7mpd1d","bigger","flamingo","Test reaction/process time to distinguish different stimuli.","no","<p>Correct!</p>","null","","","","","","",""
"","null","html-keyboard-response","186","2.0.0","178964","pwz4c7mpd1d","bigger","flamingo","Test reaction/process time to distinguish different stimuli.","no","<div style=""font-size:60px;"">+</div>","null","","","","","","",""
"","951","image-keyboard-response","187","2.0.0","179916","pwz4c7mpd1d","bigger","flamingo","Test reaction/process time to distinguish different stimuli.","no","stimuli/27-Inongruent.jpg","m","","","","","right","m","true"
"","null","html-keyboard-response","188","2.0.0","180818","pwz4c7mpd1d","bigger","flamingo","Test reaction/process time to distinguish different stimuli.","no","<p>Correct!</p>","null","","","","","","",""
"","null","html-keyboard-response","189","2.0.0","181821","pwz4c7mpd1d","bigger","flamingo","Test reaction/process time to distinguish different stimuli.","no","<div style=""font-size:60px;"">+</div>","null","","","","","","",""
"","1026","image-keyboard-response","190","2.0.0","182848","pwz4c7mpd1d","bigger","flamingo","Test reaction/process time to distinguish different stimuli.","no","stimuli/33-Congruent.jpg","z","","","","","left","z","true"
"","null","html-keyboard-response","191","2.0.0","183750","pwz4c7mpd1d","bigger","flamingo","Test reaction/process time to distinguish different stimuli.","no","<p>Correct!</p>","null","","","","","","",""
"","null","html-keyboard-response","192","2.0.0","184752","pwz4c7mpd1d","bigger","flamingo","Test reaction/process time to distinguish different stimuli.","no","<div style=""font-size:60px;"">+</div>","null","","","","","","",""
"","733","image-keyboard-response","193","2.0.0","185486","pwz4c7mpd1d","bigger","flamingo","Test reaction/process time to distinguish different stimuli.","no","stimuli/6-Inongruent.jpg","m","","","","","right","m","true"
"","null","html-keyboard-response","194","2.0.0","186388","pwz4c7mpd1d","bigger","flamingo","Test reaction/process time to distinguish different stimuli.","no","<p>Correct!</p>","null","","","","","","",""
"","null","html-keyboard-response","195","2.0.0","187391","pwz4c7mpd1d","bigger","flamingo","Test reaction/process time to distinguish different stimuli.","no","<div style=""font-size:60px;"">+</div>","null","","","","","","",""
"","852","image-keyboard-response","196","2.0.0","188244","pwz4c7mpd1d","bigger","flamingo","Test reaction/process time to distinguish different stimuli.","no","stimuli/11-Congruent.jpg","z","","","","","left","z","true"
"","null","html-keyboard-response","197","2.0.0","189146","pwz4c7mpd1d","bigger","flamingo","Test reaction/process time to distinguish different stimuli.","no","<p>Correct!</p>","null","","","","","","",""
"","null","html-keyboard-response","198","2.0.0","190149","pwz4c7mpd1d","bigger","flamingo","Test reaction/process time to distinguish different stimuli.","no","<div style=""font-size:60px;"">+</div>","null","","","","","","",""
"","1000","image-keyboard-response","199","2.0.0","191150","pwz4c7mpd1d","bigger","flamingo","Test reaction/process time to distinguish different stimuli.","no","stimuli/20-Inongruent.jpg","m","","","","","right","m","true"
"","null","html-keyboard-response","200","2.0.0","192052","pwz4c7mpd1d","bigger","flamingo","Test reaction/process time to distinguish different stimuli.","no","<p>Correct!</p>","null","","","","","","",""
"","null","html-keyboard-response","201","2.0.0","193055","pwz4c7mpd1d","bigger","flamingo","Test reaction/process time to distinguish different stimuli.","no","<div style=""font-size:60px;"">+</div>","null","","","","","","",""
"","440","image-keyboard-response","202","2.0.0","193496","pwz4c7mpd1d","bigger","flamingo","Test reaction/process time to distinguish different stimuli.","no","stimuli/26-Congruent.jpg","z","","","","","left","z","true"
"","null","html-keyboard-response","203","2.0.0","194399","pwz4c7mpd1d","bigger","flamingo","Test reaction/process time to distinguish different stimuli.","no","<p>Correct!</p>","null","","","","","","",""
"","null","html-keyboard-response","204","2.0.0","195401","pwz4c7mpd1d","bigger","flamingo","Test reaction/process time to distinguish different stimuli.","no","<div style=""font-size:60px;"">+</div>","null","","","","","","",""
"","446","image-keyboard-response","205","2.0.0","195849","pwz4c7mpd1d","bigger","flamingo","Test reaction/process time to distinguish different stimuli.","no","stimuli/1-Congruent.jpg","z","","","","","left","z","true"
"","null","html-keyboard-response","206","2.0.0","196752","pwz4c7mpd1d","bigger","flamingo","Test reaction/process time to distinguish different stimuli.","no","<p>Correct!</p>","null","","","","","","",""
"","null","html-keyboard-response","207","2.0.0","197754","pwz4c7mpd1d","bigger","flamingo","Test reaction/process time to distinguish different stimuli.","no","<div style=""font-size:60px;"">+</div>","null","","","","","","",""
"","497","image-keyboard-response","208","2.0.0","198253","pwz4c7mpd1d","bigger","flamingo","Test reaction/process time to distinguish different stimuli.","no","stimuli/3-Congruent.jpg","z","","","","","left","z","true"
"","null","html-keyboard-response","209","2.0.0","199155","pwz4c7mpd1d","bigger","flamingo","Test reaction/process time to distinguish different stimuli.","no","<p>Correct!</p>","null","","","","","","",""
"","null","html-keyboard-response","210","2.0.0","200158","pwz4c7mpd1d","bigger","flamingo","Test reaction/process time to distinguish different stimuli.","no","<div style=""font-size:60px;"">+</div>","null","","","","","","",""
"","547","image-keyboard-response","211","2.0.0","200706","pwz4c7mpd1d","bigger","flamingo","Test reaction/process time to distinguish different stimuli.","no","stimuli/20-Inongruent.jpg","m","","","","","right","m","true"
"","null","html-keyboard-response","212","2.0.0","201607","pwz4c7mpd1d","bigger","flamingo","Test reaction/process time to distinguish different stimuli.","no","<p>Correct!</p>","null","","","","","","",""
"","null","html-keyboard-response","213","2.0.0","202610","pwz4c7mpd1d","bigger","flamingo","Test reaction/process time to distinguish different stimuli.","no","<div style=""font-size:60px;"">+</div>","null","","","","","","",""
"","463","image-keyboard-response","214","2.0.0","203074","pwz4c7mpd1d","bigger","flamingo","Test reaction/process time to distinguish different stimuli.","no","stimuli/22-Inongruent.jpg","m","","","","","right","m","true"
"","null","html-keyboard-response","215","2.0.0","203975","pwz4c7mpd1d","bigger","flamingo","Test reaction/process time to distinguish different stimuli.","no","<p>Correct!</p>","null","","","","","","",""
"","null","html-keyboard-response","216","2.0.0","204977","pwz4c7mpd1d","bigger","flamingo","Test reaction/process time to distinguish different stimuli.","no","<div style=""font-size:60px;"">+</div>","null","","","","","","",""
"","385","image-keyboard-response","217","2.0.0","205363","pwz4c7mpd1d","bigger","flamingo","Test reaction/process time to distinguish different stimuli.","no","stimuli/35-Congruent.jpg","z","","","","","left","z","true"
"","null","html-keyboard-response","218","2.0.0","206266","pwz4c7mpd1d","bigger","flamingo","Test reaction/process time to distinguish different stimuli.","no","<p>Correct!</p>","null","","","","","","",""
"","null","html-keyboard-response","219","2.0.0","207268","pwz4c7mpd1d","bigger","flamingo","Test reaction/process time to distinguish different stimuli.","no","<div style=""font-size:60px;"">+</div>","null","","","","","","",""
"","421","image-keyboard-response","220","2.0.0","207691","pwz4c7mpd1d","bigger","flamingo","Test reaction/process time to distinguish different stimuli.","no","stimuli/20-Congruent.jpg","z","","","","","left","z","true"
"","null","html-keyboard-response","221","2.0.0","208593","pwz4c7mpd1d","bigger","flamingo","Test reaction/process time to distinguish different stimuli.","no","<p>Correct!</p>","null","","","","","","",""
"","null","html-keyboard-response","222","2.0.0","209596","pwz4c7mpd1d","bigger","flamingo","Test reaction/process time to distinguish different stimuli.","no","<div style=""font-size:60px;"">+</div>","null","","","","","","",""
"","491","image-keyboard-response","223","2.0.0","210088","pwz4c7mpd1d","bigger","flamingo","Test reaction/process time to distinguish different stimuli.","no","stimuli/3-Inongruent.jpg","m","","","","","right","m","true"
"","null","html-keyboard-response","224","2.0.0","210991","pwz4c7mpd1d","bigger","flamingo","Test reaction/process time to distinguish different stimuli.","no","<p>Correct!</p>","null","","","","","","",""
"","null","html-keyboard-response","225","2.0.0","211993","pwz4c7mpd1d","bigger","flamingo","Test reaction/process time to distinguish different stimuli.","no","<div style=""font-size:60px;"">+</div>","null","","","","","","",""
"","365","image-keyboard-response","226","2.0.0","212359","pwz4c7mpd1d","bigger","flamingo","Test reaction/process time to distinguish different stimuli.","no","stimuli/9-Congruent.jpg","z","","","","","left","z","true"
"","null","html-keyboard-response","227","2.0.0","213261","pwz4c7mpd1d","bigger","flamingo","Test reaction/process time to distinguish different stimuli.","no","<p>Correct!</p>","null","","","","","","",""
"","null","html-keyboard-response","228","2.0.0","214263","pwz4c7mpd1d","bigger","flamingo","Test reaction/process time to distinguish different stimuli.","no","<div style=""font-size:60px;"">+</div>","null","","","","","","",""
"","435","image-keyboard-response","229","2.0.0","214700","pwz4c7mpd1d","bigger","flamingo","Test reaction/process time to distinguish different stimuli.","no","stimuli/19-Congruent.jpg","z","","","","","left","z","true"
"","null","html-keyboard-response","230","2.0.0","215601","pwz4c7mpd1d","bigger","flamingo","Test reaction/process time to distinguish different stimuli.","no","<p>Correct!</p>","null","","","","","","",""
"","null","html-keyboard-response","231","2.0.0","216603","pwz4c7mpd1d","bigger","flamingo","Test reaction/process time to distinguish different stimuli.","no","<div style=""font-size:60px;"">+</div>","null","","","","","","",""
"","542","image-keyboard-response","232","2.0.0","217146","pwz4c7mpd1d","bigger","flamingo","Test reaction/process time to distinguish different stimuli.","no","stimuli/21-Inongruent.jpg","m","","","","","right","m","true"
"","null","html-keyboard-response","233","2.0.0","218048","pwz4c7mpd1d","bigger","flamingo","Test reaction/process time to distinguish different stimuli.","no","<p>Correct!</p>","null","","","","","","",""
"","null","html-keyboard-response","234","2.0.0","219050","pwz4c7mpd1d","bigger","flamingo","Test reaction/process time to distinguish different stimuli.","no","<div style=""font-size:60px;"">+</div>","null","","","","","","",""
"","527","image-keyboard-response","235","2.0.0","219579","pwz4c7mpd1d","bigger","flamingo","Test reaction/process time to distinguish different stimuli.","no","stimuli/10-Inongruent.jpg","m","","","","","right","m","true"
"","null","html-keyboard-response","236","2.0.0","220481","pwz4c7mpd1d","bigger","flamingo","Test reaction/process time to distinguish different stimuli.","no","<p>Correct!</p>","null","","","","","","",""
"","null","html-keyboard-response","237","2.0.0","221484","pwz4c7mpd1d","bigger","flamingo","Test reaction/process time to distinguish different stimuli.","no","<div style=""font-size:60px;"">+</div>","null","","","","","","",""
"","483","image-keyboard-response","238","2.0.0","221968","pwz4c7mpd1d","bigger","flamingo","Test reaction/process time to distinguish different stimuli.","no","stimuli/23-Inongruent.jpg","m","","","","","right","m","true"
"","null","html-keyboard-response","239","2.0.0","222870","pwz4c7mpd1d","bigger","flamingo","Test reaction/process time to distinguish different stimuli.","no","<p>Correct!</p>","null","","","","","","",""
"","null","html-keyboard-response","240","2.0.0","223873","pwz4c7mpd1d","bigger","flamingo","Test reaction/process time to distinguish different stimuli.","no","<div style=""font-size:60px;"">+</div>","null","","","","","","",""
"","479","image-keyboard-response","241","2.0.0","224353","pwz4c7mpd1d","bigger","flamingo","Test reaction/process time to distinguish different stimuli.","no","stimuli/15-Inongruent.jpg","m","","","","","right","m","true"
"","null","html-keyboard-response","242","2.0.0","225255","pwz4c7mpd1d","bigger","flamingo","Test reaction/process time to distinguish different stimuli.","no","<p>Correct!</p>","null","","","","","","",""
"","null","html-keyboard-response","243","2.0.0","226258","pwz4c7mpd1d","bigger","flamingo","Test reaction/process time to distinguish different stimuli.","no","<div style=""font-size:60px;"">+</div>","null","","","","","","",""
"","483","image-keyboard-response","244","2.0.0","226742","pwz4c7mpd1d","bigger","flamingo","Test reaction/process time to distinguish different stimuli.","no","stimuli/7-Inongruent.jpg","m","","","","","right","m","true"
"","null","html-keyboard-response","245","2.0.0","227645","pwz4c7mpd1d","bigger","flamingo","Test reaction/process time to distinguish different stimuli.","no","<p>Correct!</p>","null","","","","","","",""
"","null","html-keyboard-response","246","2.0.0","228647","pwz4c7mpd1d","bigger","flamingo","Test reaction/process time to distinguish different stimuli.","no","<div style=""font-size:60px;"">+</div>","null","","","","","","",""
"","684","image-keyboard-response","247","2.0.0","229333","pwz4c7mpd1d","bigger","flamingo","Test reaction/process time to distinguish different stimuli.","no","stimuli/9-Inongruent.jpg","m","","","","","right","m","true"
"","null","html-keyboard-response","248","2.0.0","230235","pwz4c7mpd1d","bigger","flamingo","Test reaction/process time to distinguish different stimuli.","no","<p>Correct!</p>","null","","","","","","",""
"","null","html-keyboard-response","249","2.0.0","231238","pwz4c7mpd1d","bigger","flamingo","Test reaction/process time to distinguish different stimuli.","no","<div style=""font-size:60px;"">+</div>","null","","","","","","",""
"","515","image-keyboard-response","250","2.0.0","231754","pwz4c7mpd1d","bigger","flamingo","Test reaction/process time to distinguish different stimuli.","no","stimuli/32-Inongruent.jpg","m","","","","","right","m","true"
"","null","html-keyboard-response","251","2.0.0","232656","pwz4c7mpd1d","bigger","flamingo","Test reaction/process time to distinguish different stimuli.","no","<p>Correct!</p>","null","","","","","","",""
"","null","html-keyboard-response","252","2.0.0","233660","pwz4c7mpd1d","bigger","flamingo","Test reaction/process time to distinguish different stimuli.","no","<div style=""font-size:60px;"">+</div>","null","","","","","","",""
"","444","image-keyboard-response","253","2.0.0","234105","pwz4c7mpd1d","bigger","flamingo","Test reaction/process time to distinguish different stimuli.","no","stimuli/15-Congruent.jpg","z","","","","","left","z","true"
"","null","html-keyboard-response","254","2.0.0","235006","pwz4c7mpd1d","bigger","flamingo","Test reaction/process time to distinguish different stimuli.","no","<p>Correct!</p>","null","","","","","","",""
"","null","html-keyboard-response","255","2.0.0","236008","pwz4c7mpd1d","bigger","flamingo","Test reaction/process time to distinguish different stimuli.","no","<div style=""font-size:60px;"">+</div>","null","","","","","","",""
"","596","image-keyboard-response","256","2.0.0","236605","pwz4c7mpd1d","bigger","flamingo","Test reaction/process time to distinguish different stimuli.","no","stimuli/16-Congruent.jpg","z","","","","","left","z","true"
"","null","html-keyboard-response","257","2.0.0","237507","pwz4c7mpd1d","bigger","flamingo","Test reaction/process time to distinguish different stimuli.","no","<p>Correct!</p>","null","","","","","","",""
"","null","html-keyboard-response","258","2.0.0","238509","pwz4c7mpd1d","bigger","flamingo","Test reaction/process time to distinguish different stimuli.","no","<div style=""font-size:60px;"">+</div>","null","","","","","","",""
"","452","image-keyboard-response","259","2.0.0","238962","pwz4c7mpd1d","bigger","flamingo","Test reaction/process time to distinguish different stimuli.","no","stimuli/21-Congruent.jpg","z","","","","","left","z","true"
"","null","html-keyboard-response","260","2.0.0","239864","pwz4c7mpd1d","bigger","flamingo","Test reaction/process time to distinguish different stimuli.","no","<p>Correct!</p>","null","","","","","","",""
"","null","html-keyboard-response","261","2.0.0","240867","pwz4c7mpd1d","bigger","flamingo","Test reaction/process time to distinguish different stimuli.","no","<div style=""font-size:60px;"">+</div>","null","","","","","","",""
"","570","image-keyboard-response","262","2.0.0","241438","pwz4c7mpd1d","bigger","flamingo","Test reaction/process time to distinguish different stimuli.","no","stimuli/26-Inongruent.jpg","m","","","","","right","m","true"
"","null","html-keyboard-response","263","2.0.0","242340","pwz4c7mpd1d","bigger","flamingo","Test reaction/process time to distinguish different stimuli.","no","<p>Correct!</p>","null","","","","","","",""
"","null","html-keyboard-response","264","2.0.0","243343","pwz4c7mpd1d","bigger","flamingo","Test reaction/process time to distinguish different stimuli.","no","<div style=""font-size:60px;"">+</div>","null","","","","","","",""
"","405","image-keyboard-response","265","2.0.0","243749","pwz4c7mpd1d","bigger","flamingo","Test reaction/process time to distinguish different stimuli.","no","stimuli/33-Congruent.jpg","z","","","","","left","z","true"
"","null","html-keyboard-response","266","2.0.0","244651","pwz4c7mpd1d","bigger","flamingo","Test reaction/process time to distinguish different stimuli.","no","<p>Correct!</p>","null","","","","","","",""
"","null","html-keyboard-response","267","2.0.0","245653","pwz4c7mpd1d","bigger","flamingo","Test reaction/process time to distinguish different stimuli.","no","<div style=""font-size:60px;"">+</div>","null","","","","","","",""
"","529","image-keyboard-response","268","2.0.0","246183","pwz4c7mpd1d","bigger","flamingo","Test reaction/process time to distinguish different stimuli.","no","stimuli/23-Congruent.jpg","z","","","","","left","z","true"
"","null","html-keyboard-response","269","2.0.0","247084","pwz4c7mpd1d","bigger","flamingo","Test reaction/process time to distinguish different stimuli.","no","<p>Correct!</p>","null","","","","","","",""
"","null","html-keyboard-response","270","2.0.0","248086","pwz4c7mpd1d","bigger","flamingo","Test reaction/process time to distinguish different stimuli.","no","<div style=""font-size:60px;"">+</div>","null","","","","","","",""
"","679","image-keyboard-response","271","2.0.0","248767","pwz4c7mpd1d","bigger","flamingo","Test reaction/process time to distinguish different stimuli.","no","stimuli/11-Congruent.jpg","z","","","","","left","z","true"
"","null","html-keyboard-response","272","2.0.0","249668","pwz4c7mpd1d","bigger","flamingo","Test reaction/process time to distinguish different stimuli.","no","<p>Correct!</p>","null","","","","","","",""
"","null","html-keyboard-response","273","2.0.0","250671","pwz4c7mpd1d","bigger","flamingo","Test reaction/process time to distinguish different stimuli.","no","<div style=""font-size:60px;"">+</div>","null","","","","","","",""
"","1267","image-keyboard-response","274","2.0.0","251939","pwz4c7mpd1d","bigger","flamingo","Test reaction/process time to distinguish different stimuli.","no","stimuli/19-Inongruent.jpg","m","","","","","right","m","true"
"","null","html-keyboard-response","275","2.0.0","252841","pwz4c7mpd1d","bigger","flamingo","Test reaction/process time to distinguish different stimuli.","no","<p>Correct!</p>","null","","","","","","",""
"","null","html-keyboard-response","276","2.0.0","253843","pwz4c7mpd1d","bigger","flamingo","Test reaction/process time to distinguish different stimuli.","no","<div style=""font-size:60px;"">+</div>","null","","","","","","",""
"","1701","image-keyboard-response","277","2.0.0","255545","pwz4c7mpd1d","bigger","flamingo","Test reaction/process time to distinguish different stimuli.","no","stimuli/1-Congruent.jpg","z","","","","","left","z","true"
"","null","html-keyboard-response","278","2.0.0","256447","pwz4c7mpd1d","bigger","flamingo","Test reaction/process time to distinguish different stimuli.","no","<p>Correct!</p>","null","","","","","","",""
"","null","html-keyboard-response","279","2.0.0","257449","pwz4c7mpd1d","bigger","flamingo","Test reaction/process time to distinguish different stimuli.","no","<div style=""font-size:60px;"">+</div>","null","","","","","","",""
"","1604","image-keyboard-response","280","2.0.0","259053","pwz4c7mpd1d","bigger","flamingo","Test reaction/process time to distinguish different stimuli.","no","stimuli/26-Congruent.jpg","z","","","","","left","z","true"
"","null","html-keyboard-response","281","2.0.0","259956","pwz4c7mpd1d","bigger","flamingo","Test reaction/process time to distinguish different stimuli.","no","<p>Correct!</p>","null","","","","","","",""
"","null","html-keyboard-response","282","2.0.0","260958","pwz4c7mpd1d","bigger","flamingo","Test reaction/process time to distinguish different stimuli.","no","<div style=""font-size:60px;"">+</div>","null","","","","","","",""
"","1181","image-keyboard-response","283","2.0.0","262141","pwz4c7mpd1d","bigger","flamingo","Test reaction/process time to distinguish different stimuli.","no","stimuli/33-Inongruent.jpg","m","","","","","right","m","true"
"","null","html-keyboard-response","284","2.0.0","263042","pwz4c7mpd1d","bigger","flamingo","Test reaction/process time to distinguish different stimuli.","no","<p>Correct!</p>","null","","","","","","",""
"","null","html-keyboard-response","285","2.0.0","264044","pwz4c7mpd1d","bigger","flamingo","Test reaction/process time to distinguish different stimuli.","no","<div style=""font-size:60px;"">+</div>","null","","","","","","",""
"","831","image-keyboard-response","286","2.0.0","264876","pwz4c7mpd1d","bigger","flamingo","Test reaction/process time to distinguish different stimuli.","no","stimuli/6-Congruent.jpg","z","","","","","left","z","true"
"","null","html-keyboard-response","287","2.0.0","265778","pwz4c7mpd1d","bigger","flamingo","Test reaction/process time to distinguish different stimuli.","no","<p>Correct!</p>","null","","","","","","",""
"","null","html-keyboard-response","288","2.0.0","266781","pwz4c7mpd1d","bigger","flamingo","Test reaction/process time to distinguish different stimuli.","no","<div style=""font-size:60px;"">+</div>","null","","","","","","",""
"","628","image-keyboard-response","289","2.0.0","267411","pwz4c7mpd1d","bigger","flamingo","Test reaction/process time to distinguish different stimuli.","no","stimuli/7-Congruent.jpg","z","","","","","left","z","true"
"","null","html-keyboard-response","290","2.0.0","268311","pwz4c7mpd1d","bigger","flamingo","Test reaction/process time to distinguish different stimuli.","no","<p>Correct!</p>","null","","","","","","",""
"","null","html-keyboard-response","291","2.0.0","269313","pwz4c7mpd1d","bigger","flamingo","Test reaction/process time to distinguish different stimuli.","no","<div style=""font-size:60px;"">+</div>","null","","","","","","",""
"","563","image-keyboard-response","292","2.0.0","269878","pwz4c7mpd1d","bigger","flamingo","Test reaction/process time to distinguish different stimuli.","no","stimuli/9-Congruent.jpg","z","","","","","left","z","true"
"","null","html-keyboard-response","293","2.0.0","270780","pwz4c7mpd1d","bigger","flamingo","Test reaction/process time to distinguish different stimuli.","no","<p>Correct!</p>","null","","","","","","",""
"","null","html-keyboard-response","294","2.0.0","271782","pwz4c7mpd1d","bigger","flamingo","Test reaction/process time to distinguish different stimuli.","no","<div style=""font-size:60px;"">+</div>","null","","","","","","",""
"","1055","image-keyboard-response","295","2.0.0","272838","pwz4c7mpd1d","bigger","flamingo","Test reaction/process time to distinguish different stimuli.","no","stimuli/13-Congruent.jpg","z","","","","","left","z","true"
"","null","html-keyboard-response","296","2.0.0","273739","pwz4c7mpd1d","bigger","flamingo","Test reaction/process time to distinguish different stimuli.","no","<p>Correct!</p>","null","","","","","","",""
"","null","html-keyboard-response","297","2.0.0","274742","pwz4c7mpd1d","bigger","flamingo","Test reaction/process time to distinguish different stimuli.","no","<div style=""font-size:60px;"">+</div>","null","","","","","","",""
"","594","image-keyboard-response","298","2.0.0","275337","pwz4c7mpd1d","bigger","flamingo","Test reaction/process time to distinguish different stimuli.","no","stimuli/17-Inongruent.jpg","m","","","","","right","m","true"
"","null","html-keyboard-response","299","2.0.0","276239","pwz4c7mpd1d","bigger","flamingo","Test reaction/process time to distinguish different stimuli.","no","<p>Correct!</p>","null","","","","","","",""
"","null","html-keyboard-response","300","2.0.0","277241","pwz4c7mpd1d","bigger","flamingo","Test reaction/process time to distinguish different stimuli.","no","<div style=""font-size:60px;"">+</div>","null","","","","","","",""
"","465","image-keyboard-response","301","2.0.0","277707","pwz4c7mpd1d","bigger","flamingo","Test reaction/process time to distinguish different stimuli.","no","stimuli/32-Congruent.jpg","z","","","","","left","z","true"
"","null","html-keyboard-response","302","2.0.0","278609","pwz4c7mpd1d","bigger","flamingo","Test reaction/process time to distinguish different stimuli.","no","<p>Correct!</p>","null","","","","","","",""
"","null","html-keyboard-response","303","2.0.0","279612","pwz4c7mpd1d","bigger","flamingo","Test reaction/process time to distinguish different stimuli.","no","<div style=""font-size:60px;"">+</div>","null","","","","","","",""
"","605","image-keyboard-response","304","2.0.0","280219","pwz4c7mpd1d","bigger","flamingo","Test reaction/process time to distinguish different stimuli.","no","stimuli/14-Congruent.jpg","z","","","","","left","z","true"
"","null","html-keyboard-response","305","2.0.0","281121","pwz4c7mpd1d","bigger","flamingo","Test reaction/process time to distinguish different stimuli.","no","<p>Correct!</p>","null","","","","","","",""
"","null","html-keyboard-response","306","2.0.0","282123","pwz4c7mpd1d","bigger","flamingo","Test reaction/process time to distinguish different stimuli.","no","<div style=""font-size:60px;"">+</div>","null","","","","","","",""
"","441","image-keyboard-response","307","2.0.0","282565","pwz4c7mpd1d","bigger","flamingo","Test reaction/process time to distinguish different stimuli.","no","stimuli/13-Inongruent.jpg","m","","","","","right","m","true"
"","null","html-keyboard-response","308","2.0.0","283468","pwz4c7mpd1d","bigger","flamingo","Test reaction/process time to distinguish different stimuli.","no","<p>Correct!</p>","null","","","","","","",""
"","null","html-keyboard-response","309","2.0.0","284470","pwz4c7mpd1d","bigger","flamingo","Test reaction/process time to distinguish different stimuli.","no","<div style=""font-size:60px;"">+</div>","null","","","","","","",""
"","410","image-keyboard-response","310","2.0.0","284881","pwz4c7mpd1d","bigger","flamingo","Test reaction/process time to distinguish different stimuli.","no","stimuli/36-Congruent.jpg","z","","","","","left","z","true"
"","null","html-keyboard-response","311","2.0.0","285783","pwz4c7mpd1d","bigger","flamingo","Test reaction/process time to distinguish different stimuli.","no","<p>Correct!</p>","null","","","","","","",""
"","null","html-keyboard-response","312","2.0.0","286785","pwz4c7mpd1d","bigger","flamingo","Test reaction/process time to distinguish different stimuli.","no","<div style=""font-size:60px;"">+</div>","null","","","","","","",""
"","551","image-keyboard-response","313","2.0.0","287337","pwz4c7mpd1d","bigger","flamingo","Test reaction/process time to distinguish different stimuli.","no","stimuli/31-Inongruent.jpg","m","","","","","right","m","true"
"","null","html-keyboard-response","314","2.0.0","288239","pwz4c7mpd1d","bigger","flamingo","Test reaction/process time to distinguish different stimuli.","no","<p>Correct!</p>","null","","","","","","",""
"","null","html-keyboard-response","315","2.0.0","289242","pwz4c7mpd1d","bigger","flamingo","Test reaction/process time to distinguish different stimuli.","no","<div style=""font-size:60px;"">+</div>","null","","","","","","",""
"","453","image-keyboard-response","316","2.0.0","289696","pwz4c7mpd1d","bigger","flamingo","Test reaction/process time to distinguish different stimuli.","no","stimuli/28-Inongruent.jpg","m","","","","","right","m","true"
"","null","html-keyboard-response","317","2.0.0","290598","pwz4c7mpd1d","bigger","flamingo","Test reaction/process time to distinguish different stimuli.","no","<p>Correct!</p>","null","","","","","","",""
"","null","html-keyboard-response","318","2.0.0","291600","pwz4c7mpd1d","bigger","flamingo","Test reaction/process time to distinguish different stimuli.","no","<div style=""font-size:60px;"">+</div>","null","","","","","","",""
"","575","image-keyboard-response","319","2.0.0","292176","pwz4c7mpd1d","bigger","flamingo","Test reaction/process time to distinguish different stimuli.","no","stimuli/19-Inongruent.jpg","m","","","","","right","m","true"
"","null","html-keyboard-response","320","2.0.0","293078","pwz4c7mpd1d","bigger","flamingo","Test reaction/process time to distinguish different stimuli.","no","<p>Correct!</p>","null","","","","","","",""
"","null","html-keyboard-response","321","2.0.0","294080","pwz4c7mpd1d","bigger","flamingo","Test reaction/process time to distinguish different stimuli.","no","<div style=""font-size:60px;"">+</div>","null","","","","","","",""
"","444","image-keyboard-response","322","2.0.0","294526","pwz4c7mpd1d","bigger","flamingo","Test reaction/process time to distinguish different stimuli.","no","stimuli/7-Congruent.jpg","z","","","","","left","z","true"
"","null","html-keyboard-response","323","2.0.0","295428","pwz4c7mpd1d","bigger","flamingo","Test reaction/process time to distinguish different stimuli.","no","<p>Correct!</p>","null","","","","","","",""
"","null","html-keyboard-response","324","2.0.0","296431","pwz4c7mpd1d","bigger","flamingo","Test reaction/process time to distinguish different stimuli.","no","<div style=""font-size:60px;"">+</div>","null","","","","","","",""
"","461","image-keyboard-response","325","2.0.0","296893","pwz4c7mpd1d","bigger","flamingo","Test reaction/process time to distinguish different stimuli.","no","stimuli/34-Congruent.jpg","z","","","","","left","z","true"
"","null","html-keyboard-response","326","2.0.0","297795","pwz4c7mpd1d","bigger","flamingo","Test reaction/process time to distinguish different stimuli.","no","<p>Correct!</p>","null","","","","","","",""
"","null","html-keyboard-response","327","2.0.0","298798","pwz4c7mpd1d","bigger","flamingo","Test reaction/process time to distinguish different stimuli.","no","<div style=""font-size:60px;"">+</div>","null","","","","","","",""
"","444","image-keyboard-response","328","2.0.0","299243","pwz4c7mpd1d","bigger","flamingo","Test reaction/process time to distinguish different stimuli.","no","stimuli/14-Congruent.jpg","z","","","","","left","z","true"
"","null","html-keyboard-response","329","2.0.0","300144","pwz4c7mpd1d","bigger","flamingo","Test reaction/process time to distinguish different stimuli.","no","<p>Correct!</p>","null","","","","","","",""
"","null","html-keyboard-response","330","2.0.0","301147","pwz4c7mpd1d","bigger","flamingo","Test reaction/process time to distinguish different stimuli.","no","<div style=""font-size:60px;"">+</div>","null","","","","","","",""
"","461","image-keyboard-response","331","2.0.0","301608","pwz4c7mpd1d","bigger","flamingo","Test reaction/process time to distinguish different stimuli.","no","stimuli/23-Inongruent.jpg","m","","","","","right","m","true"
"","null","html-keyboard-response","332","2.0.0","302510","pwz4c7mpd1d","bigger","flamingo","Test reaction/process time to distinguish different stimuli.","no","<p>Correct!</p>","null","","","","","","",""
"","null","html-keyboard-response","333","2.0.0","303513","pwz4c7mpd1d","bigger","flamingo","Test reaction/process time to distinguish different stimuli.","no","<div style=""font-size:60px;"">+</div>","null","","","","","","",""
"","567","image-keyboard-response","334","2.0.0","304080","pwz4c7mpd1d","bigger","flamingo","Test reaction/process time to distinguish different stimuli.","no","stimuli/8-Inongruent.jpg","m","","","","","right","m","true"
"","null","html-keyboard-response","335","2.0.0","304982","pwz4c7mpd1d","bigger","flamingo","Test reaction/process time to distinguish different stimuli.","no","<p>Correct!</p>","null","","","","","","",""
"","null","html-keyboard-response","336","2.0.0","305985","pwz4c7mpd1d","bigger","flamingo","Test reaction/process time to distinguish different stimuli.","no","<div style=""font-size:60px;"">+</div>","null","","","","","","",""
"","404","image-keyboard-response","337","2.0.0","306390","pwz4c7mpd1d","bigger","flamingo","Test reaction/process time to distinguish different stimuli.","no","stimuli/21-Congruent.jpg","z","","","","","left","z","true"
"","null","html-keyboard-response","338","2.0.0","307292","pwz4c7mpd1d","bigger","flamingo","Test reaction/process time to distinguish different stimuli.","no","<p>Correct!</p>","null","","","","","","",""
"","null","html-keyboard-response","339","2.0.0","308294","pwz4c7mpd1d","bigger","flamingo","Test reaction/process time to distinguish different stimuli.","no","<div style=""font-size:60px;"">+</div>","null","","","","","","",""
"","555","image-keyboard-response","340","2.0.0","308850","pwz4c7mpd1d","bigger","flamingo","Test reaction/process time to distinguish different stimuli.","no","stimuli/5-Congruent.jpg","z","","","","","left","z","true"
"","null","html-keyboard-response","341","2.0.0","309751","pwz4c7mpd1d","bigger","flamingo","Test reaction/process time to distinguish different stimuli.","no","<p>Correct!</p>","null","","","","","","",""
"","null","html-keyboard-response","342","2.0.0","310753","pwz4c7mpd1d","bigger","flamingo","Test reaction/process time to distinguish different stimuli.","no","<div style=""font-size:60px;"">+</div>","null","","","","","","",""
"","644","image-keyboard-response","343","2.0.0","311398","pwz4c7mpd1d","bigger","flamingo","Test reaction/process time to distinguish different stimuli.","no","stimuli/22-Inongruent.jpg","m","","","","","right","m","true"
"","null","html-keyboard-response","344","2.0.0","312299","pwz4c7mpd1d","bigger","flamingo","Test reaction/process time to distinguish different stimuli.","no","<p>Correct!</p>","null","","","","","","",""
"","null","html-keyboard-response","345","2.0.0","313302","pwz4c7mpd1d","bigger","flamingo","Test reaction/process time to distinguish different stimuli.","no","<div style=""font-size:60px;"">+</div>","null","","","","","","",""
"","580","image-keyboard-response","346","2.0.0","313883","pwz4c7mpd1d","bigger","flamingo","Test reaction/process time to distinguish different stimuli.","no","stimuli/19-Congruent.jpg","z","","","","","left","z","true"
"","null","html-keyboard-response","347","2.0.0","314785","pwz4c7mpd1d","bigger","flamingo","Test reaction/process time to distinguish different stimuli.","no","<p>Correct!</p>","null","","","","","","",""
"","null","html-keyboard-response","348","2.0.0","315787","pwz4c7mpd1d","bigger","flamingo","Test reaction/process time to distinguish different stimuli.","no","<div style=""font-size:60px;"">+</div>","null","","","","","","",""
"","797","image-keyboard-response","349","2.0.0","316584","pwz4c7mpd1d","bigger","flamingo","Test reaction/process time to distinguish different stimuli.","no","stimuli/25-Inongruent.jpg","m","","","","","right","m","true"
"","null","html-keyboard-response","350","2.0.0","317486","pwz4c7mpd1d","bigger","flamingo","Test reaction/process time to distinguish different stimuli.","no","<p>Correct!</p>","null","","","","","","",""
"","null","html-keyboard-response","351","2.0.0","318488","pwz4c7mpd1d","bigger","flamingo","Test reaction/process time to distinguish different stimuli.","no","<div style=""font-size:60px;"">+</div>","null","","","","","","",""
"","541","image-keyboard-response","352","2.0.0","319030","pwz4c7mpd1d","bigger","flamingo","Test reaction/process time to distinguish different stimuli.","no","stimuli/12-Congruent.jpg","z","","","","","left","z","true"
"","null","html-keyboard-response","353","2.0.0","319931","pwz4c7mpd1d","bigger","flamingo","Test reaction/process time to distinguish different stimuli.","no","<p>Correct!</p>","null","","","","","","",""
"","null","html-keyboard-response","354","2.0.0","320933","pwz4c7mpd1d","bigger","flamingo","Test reaction/process time to distinguish different stimuli.","no","<div style=""font-size:60px;"">+</div>","null","","","","","","",""
"","463","image-keyboard-response","355","2.0.0","321397","pwz4c7mpd1d","bigger","flamingo","Test reaction/process time to distinguish different stimuli.","no","stimuli/18-Inongruent.jpg","m","","","","","right","m","true"
"","null","html-keyboard-response","356","2.0.0","322299","pwz4c7mpd1d","bigger","flamingo","Test reaction/process time to distinguish different stimuli.","no","<p>Correct!</p>","null","","","","","","",""
"","null","html-keyboard-response","357","2.0.0","323302","pwz4c7mpd1d","bigger","flamingo","Test reaction/process time to distinguish different stimuli.","no","<div style=""font-size:60px;"">+</div>","null","","","","","","",""
"","531","image-keyboard-response","358","2.0.0","323834","pwz4c7mpd1d","bigger","flamingo","Test reaction/process time to distinguish different stimuli.","no","stimuli/14-Inongruent.jpg","m","","","","","right","m","true"
"","null","html-keyboard-response","359","2.0.0","324737","pwz4c7mpd1d","bigger","flamingo","Test reaction/process time to distinguish different stimuli.","no","<p>Correct!</p>","null","","","","","","",""
"","null","html-keyboard-response","360","2.0.0","325738","pwz4c7mpd1d","bigger","flamingo","Test reaction/process time to distinguish different stimuli.","no","<div style=""font-size:60px;"">+</div>","null","","","","","","",""
"","471","image-keyboard-response","361","2.0.0","326210","pwz4c7mpd1d","bigger","flamingo","Test reaction/process time to distinguish different stimuli.","no","stimuli/6-Inongruent.jpg","m","","","","","right","m","true"
"","null","html-keyboard-response","362","2.0.0","327112","pwz4c7mpd1d","bigger","flamingo","Test reaction/process time to distinguish different stimuli.","no","<p>Correct!</p>","null","","","","","","",""
"","null","html-keyboard-response","363","2.0.0","328115","pwz4c7mpd1d","bigger","flamingo","Test reaction/process time to distinguish different stimuli.","no","<div style=""font-size:60px;"">+</div>","null","","","","","","",""
"","426","image-keyboard-response","364","2.0.0","328542","pwz4c7mpd1d","bigger","flamingo","Test reaction/process time to distinguish different stimuli.","no","stimuli/2-Inongruent.jpg","m","","","","","right","m","true"
"","null","html-keyboard-response","365","2.0.0","329443","pwz4c7mpd1d","bigger","flamingo","Test reaction/process time to distinguish different stimuli.","no","<p>Correct!</p>","null","","","","","","",""
"","null","html-keyboard-response","366","2.0.0","330444","pwz4c7mpd1d","bigger","flamingo","Test reaction/process time to distinguish different stimuli.","no","<div style=""font-size:60px;"">+</div>","null","","","","","","",""
"","723","image-keyboard-response","367","2.0.0","331167","pwz4c7mpd1d","bigger","flamingo","Test reaction/process time to distinguish different stimuli.","no","stimuli/13-Inongruent.jpg","m","","","","","right","m","true"
"","null","html-keyboard-response","368","2.0.0","332069","pwz4c7mpd1d","bigger","flamingo","Test reaction/process time to distinguish different stimuli.","no","<p>Correct!</p>","null","","","","","","",""
"","null","html-keyboard-response","369","2.0.0","333072","pwz4c7mpd1d","bigger","flamingo","Test reaction/process time to distinguish different stimuli.","no","<div style=""font-size:60px;"">+</div>","null","","","","","","",""
"","472","image-keyboard-response","370","2.0.0","333545","pwz4c7mpd1d","bigger","flamingo","Test reaction/process time to distinguish different stimuli.","no","stimuli/26-Inongruent.jpg","m","","","","","right","m","true"
"","null","html-keyboard-response","371","2.0.0","334447","pwz4c7mpd1d","bigger","flamingo","Test reaction/process time to distinguish different stimuli.","no","<p>Correct!</p>","null","","","","","","",""
"","null","html-keyboard-response","372","2.0.0","335449","pwz4c7mpd1d","bigger","flamingo","Test reaction/process time to distinguish different stimuli.","no","<div style=""font-size:60px;"">+</div>","null","","","","","","",""
"","537","image-keyboard-response","373","2.0.0","335986","pwz4c7mpd1d","bigger","flamingo","Test reaction/process time to distinguish different stimuli.","no","stimuli/28-Congruent.jpg","z","","","","","left","z","true"
"","null","html-keyboard-response","374","2.0.0","336888","pwz4c7mpd1d","bigger","flamingo","Test reaction/process time to distinguish different stimuli.","no","<p>Correct!</p>","null","","","","","","",""
"","null","html-keyboard-response","375","2.0.0","337890","pwz4c7mpd1d","bigger","flamingo","Test reaction/process time to distinguish different stimuli.","no","<div style=""font-size:60px;"">+</div>","null","","","","","","",""
"","535","image-keyboard-response","376","2.0.0","338426","pwz4c7mpd1d","bigger","flamingo","Test reaction/process time to distinguish different stimuli.","no","stimuli/25-Inongruent.jpg","m","","","","","right","m","true"
"","null","html-keyboard-response","377","2.0.0","339328","pwz4c7mpd1d","bigger","flamingo","Test reaction/process time to distinguish different stimuli.","no","<p>Correct!</p>","null","","","","","","",""
"","null","html-keyboard-response","378","2.0.0","340329","pwz4c7mpd1d","bigger","flamingo","Test reaction/process time to distinguish different stimuli.","no","<div style=""font-size:60px;"">+</div>","null","","","","","","",""
"","478","image-keyboard-response","379","2.0.0","340809","pwz4c7mpd1d","bigger","flamingo","Test reaction/process time to distinguish different stimuli.","no","stimuli/34-Congruent.jpg","z","","","","","left","z","true"
"","null","html-keyboard-response","380","2.0.0","341710","pwz4c7mpd1d","bigger","flamingo","Test reaction/process time to distinguish different stimuli.","no","<p>Correct!</p>","null","","","","","","",""
"","null","html-keyboard-response","381","2.0.0","342713","pwz4c7mpd1d","bigger","flamingo","Test reaction/process time to distinguish different stimuli.","no","<div style=""font-size:60px;"">+</div>","null","","","","","","",""
"","426","image-keyboard-response","382","2.0.0","343140","pwz4c7mpd1d","bigger","flamingo","Test reaction/process time to distinguish different stimuli.","no","stimuli/5-Inongruent.jpg","m","","","","","right","m","true"
"","null","html-keyboard-response","383","2.0.0","344041","pwz4c7mpd1d","bigger","flamingo","Test reaction/process time to distinguish different stimuli.","no","<p>Correct!</p>","null","","","","","","",""
"","null","html-keyboard-response","384","2.0.0","345043","pwz4c7mpd1d","bigger","flamingo","Test reaction/process time to distinguish different stimuli.","no","<div style=""font-size:60px;"">+</div>","null","","","","","","",""
"","604","image-keyboard-response","385","2.0.0","345648","pwz4c7mpd1d","bigger","flamingo","Test reaction/process time to distinguish different stimuli.","no","stimuli/4-Congruent.jpg","z","","","","","left","z","true"
"","null","html-keyboard-response","386","2.0.0","346550","pwz4c7mpd1d","bigger","flamingo","Test reaction/process time to distinguish different stimuli.","no","<p>Correct!</p>","null","","","","","","",""
"","null","html-keyboard-response","387","2.0.0","347552","pwz4c7mpd1d","bigger","flamingo","Test reaction/process time to distinguish different stimuli.","no","<div style=""font-size:60px;"">+</div>","null","","","","","","",""
"","506","image-keyboard-response","388","2.0.0","348059","pwz4c7mpd1d","bigger","flamingo","Test reaction/process time to distinguish different stimuli.","no","stimuli/2-Congruent.jpg","z","","","","","left","z","true"
"","null","html-keyboard-response","389","2.0.0","348960","pwz4c7mpd1d","bigger","flamingo","Test reaction/process time to distinguish different stimuli.","no","<p>Correct!</p>","null","","","","","","",""
"","null","html-keyboard-response","390","2.0.0","349961","pwz4c7mpd1d","bigger","flamingo","Test reaction/process time to distinguish different stimuli.","no","<div style=""font-size:60px;"">+</div>","null","","","","","","",""
"","558","image-keyboard-response","391","2.0.0","350520","pwz4c7mpd1d","bigger","flamingo","Test reaction/process time to distinguish different stimuli.","no","stimuli/8-Inongruent.jpg","m","","","","","right","m","true"
"","null","html-keyboard-response","392","2.0.0","351422","pwz4c7mpd1d","bigger","flamingo","Test reaction/process time to distinguish different stimuli.","no","<p>Correct!</p>","null","","","","","","",""
"","null","html-keyboard-response","393","2.0.0","352424","pwz4c7mpd1d","bigger","flamingo","Test reaction/process time to distinguish different stimuli.","no","<div style=""font-size:60px;"">+</div>","null","","","","","","",""
"","537","image-keyboard-response","394","2.0.0","352962","pwz4c7mpd1d","bigger","flamingo","Test reaction/process time to distinguish different stimuli.","no","stimuli/29-Congruent.jpg","z","","","","","left","z","true"
"","null","html-keyboard-response","395","2.0.0","353865","pwz4c7mpd1d","bigger","flamingo","Test reaction/process time to distinguish different stimuli.","no","<p>Correct!</p>","null","","","","","","",""
"","null","html-keyboard-response","396","2.0.0","354867","pwz4c7mpd1d","bigger","flamingo","Test reaction/process time to distinguish different stimuli.","no","<div style=""font-size:60px;"">+</div>","null","","","","","","",""
"","1221","image-keyboard-response","397","2.0.0","356089","pwz4c7mpd1d","bigger","flamingo","Test reaction/process time to distinguish different stimuli.","no","stimuli/17-Inongruent.jpg","m","","","","","right","m","true"
"","null","html-keyboard-response","398","2.0.0","356991","pwz4c7mpd1d","bigger","flamingo","Test reaction/process time to distinguish different stimuli.","no","<p>Correct!</p>","null","","","","","","",""
"","null","html-keyboard-response","399","2.0.0","357994","pwz4c7mpd1d","bigger","flamingo","Test reaction/process time to distinguish different stimuli.","no","<div style=""font-size:60px;"">+</div>","null","","","","","","",""
"","517","image-keyboard-response","400","2.0.0","358511","pwz4c7mpd1d","bigger","flamingo","Test reaction/process time to distinguish different stimuli.","no","stimuli/29-Congruent.jpg","z","","","","","left","z","true"
"","null","html-keyboard-response","401","2.0.0","359413","pwz4c7mpd1d","bigger","flamingo","Test reaction/process time to distinguish different stimuli.","no","<p>Correct!</p>","null","","","","","","",""
"","null","html-keyboard-response","402","2.0.0","360416","pwz4c7mpd1d","bigger","flamingo","Test reaction/process time to distinguish different stimuli.","no","<div style=""font-size:60px;"">+</div>","null","","","","","","",""
"","423","image-keyboard-response","403","2.0.0","360840","pwz4c7mpd1d","bigger","flamingo","Test reaction/process time to distinguish different stimuli.","no","stimuli/13-Congruent.jpg","z","","","","","left","z","true"
"","null","html-keyboard-response","404","2.0.0","361741","pwz4c7mpd1d","bigger","flamingo","Test reaction/process time to distinguish different stimuli.","no","<p>Correct!</p>","null","","","","","","",""
"","null","html-keyboard-response","405","2.0.0","362743","pwz4c7mpd1d","bigger","flamingo","Test reaction/process time to distinguish different stimuli.","no","<div style=""font-size:60px;"">+</div>","null","","","","","","",""
"","474","image-keyboard-response","406","2.0.0","363218","pwz4c7mpd1d","bigger","flamingo","Test reaction/process time to distinguish different stimuli.","no","stimuli/2-Congruent.jpg","z","","","","","left","z","true"
"","null","html-keyboard-response","407","2.0.0","364121","pwz4c7mpd1d","bigger","flamingo","Test reaction/process time to distinguish different stimuli.","no","<p>Correct!</p>","null","","","","","","",""
"","null","html-keyboard-response","408","2.0.0","365123","pwz4c7mpd1d","bigger","flamingo","Test reaction/process time to distinguish different stimuli.","no","<div style=""font-size:60px;"">+</div>","null","","","","","","",""
"","469","image-keyboard-response","409","2.0.0","365593","pwz4c7mpd1d","bigger","flamingo","Test reaction/process time to distinguish different stimuli.","no","stimuli/2-Inongruent.jpg","m","","","","","right","m","true"
"","null","html-keyboard-response","410","2.0.0","366499","pwz4c7mpd1d","bigger","flamingo","Test reaction/process time to distinguish different stimuli.","no","<p>Correct!</p>","null","","","","","","",""
"","null","html-keyboard-response","411","2.0.0","367502","pwz4c7mpd1d","bigger","flamingo","Test reaction/process time to distinguish different stimuli.","no","<div style=""font-size:60px;"">+</div>","null","","","","","","",""
"","431","image-keyboard-response","412","2.0.0","367933","pwz4c7mpd1d","bigger","flamingo","Test reaction/process time to distinguish different stimuli.","no","stimuli/23-Congruent.jpg","z","","","","","left","z","true"
"","null","html-keyboard-response","413","2.0.0","368835","pwz4c7mpd1d","bigger","flamingo","Test reaction/process time to distinguish different stimuli.","no","<p>Correct!</p>","null","","","","","","",""
"","null","html-keyboard-response","414","2.0.0","369838","pwz4c7mpd1d","bigger","flamingo","Test reaction/process time to distinguish different stimuli.","no","<div style=""font-size:60px;"">+</div>","null","","","","","","",""
"","588","image-keyboard-response","415","2.0.0","370427","pwz4c7mpd1d","bigger","flamingo","Test reaction/process time to distinguish different stimuli.","no","stimuli/10-Inongruent.jpg","m","","","","","right","m","true"
"","null","html-keyboard-response","416","2.0.0","371329","pwz4c7mpd1d","bigger","flamingo","Test reaction/process time to distinguish different stimuli.","no","<p>Correct!</p>","null","","","","","","",""
"","null","html-keyboard-response","417","2.0.0","372330","pwz4c7mpd1d","bigger","flamingo","Test reaction/process time to distinguish different stimuli.","no","<div style=""font-size:60px;"">+</div>","null","","","","","","",""
"","384","image-keyboard-response","418","2.0.0","372715","pwz4c7mpd1d","bigger","flamingo","Test reaction/process time to distinguish different stimuli.","no","stimuli/27-Congruent.jpg","z","","","","","left","z","true"
"","null","html-keyboard-response","419","2.0.0","373618","pwz4c7mpd1d","bigger","flamingo","Test reaction/process time to distinguish different stimuli.","no","<p>Correct!</p>","null","","","","","","",""
"","null","html-keyboard-response","420","2.0.0","374620","pwz4c7mpd1d","bigger","flamingo","Test reaction/process time to distinguish different stimuli.","no","<div style=""font-size:60px;"">+</div>","null","","","","","","",""
"","563","image-keyboard-response","421","2.0.0","375185","pwz4c7mpd1d","bigger","flamingo","Test reaction/process time to distinguish different stimuli.","no","stimuli/17-Congruent.jpg","z","","","","","left","z","true"
"","null","html-keyboard-response","422","2.0.0","376087","pwz4c7mpd1d","bigger","flamingo","Test reaction/process time to distinguish different stimuli.","no","<p>Correct!</p>","null","","","","","","",""
"","null","html-keyboard-response","423","2.0.0","377090","pwz4c7mpd1d","bigger","flamingo","Test reaction/process time to distinguish different stimuli.","no","<div style=""font-size:60px;"">+</div>","null","","","","","","",""
"","445","image-keyboard-response","424","2.0.0","377536","pwz4c7mpd1d","bigger","flamingo","Test reaction/process time to distinguish different stimuli.","no","stimuli/36-Congruent.jpg","z","","","","","left","z","true"
"","null","html-keyboard-response","425","2.0.0","378438","pwz4c7mpd1d","bigger","flamingo","Test reaction/process time to distinguish different stimuli.","no","<p>Correct!</p>","null","","","","","","",""
"","null","html-keyboard-response","426","2.0.0","379441","pwz4c7mpd1d","bigger","flamingo","Test reaction/process time to distinguish different stimuli.","no","<div style=""font-size:60px;"">+</div>","null","","","","","","",""
"","491","image-keyboard-response","427","2.0.0","379933","pwz4c7mpd1d","bigger","flamingo","Test reaction/process time to distinguish different stimuli.","no","stimuli/30-Inongruent.jpg","m","","","","","right","m","true"
"","null","html-keyboard-response","428","2.0.0","380835","pwz4c7mpd1d","bigger","flamingo","Test reaction/process time to distinguish different stimuli.","no","<p>Correct!</p>","null","","","","","","",""
"","null","html-keyboard-response","429","2.0.0","381837","pwz4c7mpd1d","bigger","flamingo","Test reaction/process time to distinguish different stimuli.","no","<div style=""font-size:60px;"">+</div>","null","","","","","","",""
"","1780","image-keyboard-response","430","2.0.0","383618","pwz4c7mpd1d","bigger","flamingo","Test reaction/process time to distinguish different stimuli.","no","stimuli/24-Congruent.jpg","z","","","","","left","z","true"
"","null","html-keyboard-response","431","2.0.0","384521","pwz4c7mpd1d","bigger","flamingo","Test reaction/process time to distinguish different stimuli.","no","<p>Correct!</p>","null","","","","","","",""
"","null","html-keyboard-response","432","2.0.0","385522","pwz4c7mpd1d","bigger","flamingo","Test reaction/process time to distinguish different stimuli.","no","<div style=""font-size:60px;"">+</div>","null","","","","","","",""
"","654","image-keyboard-response","433","2.0.0","386177","pwz4c7mpd1d","bigger","flamingo","Test reaction/process time to distinguish different stimuli.","no","stimuli/1-Inongruent.jpg","m","","","","","right","m","true"
"","null","html-keyboard-response","434","2.0.0","387080","pwz4c7mpd1d","bigger","flamingo","Test reaction/process time to distinguish different stimuli.","no","<p>Correct!</p>","null","","","","","","",""
"","null","html-keyboard-response","435","2.0.0","388082","pwz4c7mpd1d","bigger","flamingo","Test reaction/process time to distinguish different stimuli.","no","<div style=""font-size:60px;"">+</div>","null","","","","","","",""
"","839","image-keyboard-response","436","2.0.0","388922","pwz4c7mpd1d","bigger","flamingo","Test reaction/process time to distinguish different stimuli.","no","stimuli/22-Congruent.jpg","z","","","","","left","z","true"
"","null","html-keyboard-response","437","2.0.0","389823","pwz4c7mpd1d","bigger","flamingo","Test reaction/process time to distinguish different stimuli.","no","<p>Correct!</p>","null","","","","","","",""
"","3585","html-keyboard-response","438","2.0.0","393410","pwz4c7mpd1d","bigger","flamingo","Test reaction/process time to distinguish different stimuli.","no","<p>You have completed the experiment!</p>
              <p>Your accuracy was: 98.61111111111111%.</p>
              <p>Thank you for participating.</p>
              <p>Press any key to continue.</p>"," ","","","","","","",""
"","31267","survey-text","439","2.0.0","424679","pwz4c7mpd1d","bigger","flamingo","Test reaction/process time to distinguish different stimuli.","no","","{""participant_thoughts"":""Test reaction/process time to distinguish different stimuli.""}","","","","","","",""
"","5576","survey-text","440","2.0.0","430257","pwz4c7mpd1d","bigger","flamingo","Test reaction/process time to distinguish different stimuli.","no","","{""participant_difficulties"":""no""}","","","","","","",""
"","6315","html-keyboard-response","441","2.0.0","436573","pwz4c7mpd1d","bigger","flamingo","Test reaction/process time to distinguish different stimuli.","no","<p>The purpose of this experiment is to determine if the real world size of a familiar object is automatically processed when viewed.</p><p>Thank you for participating!</p>"," ","","","","","","",""
