"success","rt","trial_type","trial_index","plugin_version","time_elapsed","random_id","condition","participant","participant_thoughts","participant_difficulties","stimulus","response","timeout","failed_images","failed_audio","failed_video","correct_response","correct_response_key","correct"
"true","2347","fullscreen","0","null","3361","px12rofgcow","bigger","rhino","To see if participants would incorrectly select the smaller image of a bigger object.","I did not experience any issues.","","","","","","","","",""
"","1433","html-keyboard-response","1","2.0.0","4794","px12rofgcow","bigger","rhino","To see if participants would incorrectly select the smaller image of a bigger object.","I did not experience any issues.","Welcome to the Size Stroop experiment. Press any key to begin."," ","","","","","","",""
"","null","html-keyboard-response","2","2.0.0","5796","px12rofgcow","bigger","rhino","To see if participants would incorrectly select the smaller image of a bigger object.","I did not experience any issues.","This trial will be in fullscreen mode.","null","","","","","","",""
"","2102","survey-text","3","2.0.0","7899","px12rofgcow","bigger","rhino","To see if participants would incorrectly select the smaller image of a bigger object.","I did not experience any issues.","","{""participant_id"":""rhino""}","","","","","","",""
"","11676","html-keyboard-response","4","2.0.0","19576","px12rofgcow","bigger","rhino","To see if participants would incorrectly select the smaller image of a bigger object.","I did not experience any issues.","<p>In this experiment, two images will appear on the screen. Identify the <strong>larger</strong> images.</p>
              <p>If the image on the left is larger, press ""z"". If the image on the right is larger, press ""m"".</p>
              <p>Press any key to begin.</p>"," ","","","","","","",""
"true","","preload","5","2.0.0","19770","px12rofgcow","bigger","rhino","To see if participants would incorrectly select the smaller image of a bigger object.","I did not experience any issues.","","","false","[]","[]","[]","","",""
"","null","html-keyboard-response","6","2.0.0","20773","px12rofgcow","bigger","rhino","To see if participants would incorrectly select the smaller image of a bigger object.","I did not experience any issues.","<div style=""font-size:60px;"">+</div>","null","","","","","","",""
"","1017","image-keyboard-response","7","2.0.0","21795","px12rofgcow","bigger","rhino","To see if participants would incorrectly select the smaller image of a bigger object.","I did not experience any issues.","stimuli/8-Congruent.jpg","z","","","","","left","z","true"
"","null","html-keyboard-response","8","2.0.0","22699","px12rofgcow","bigger","rhino","To see if participants would incorrectly select the smaller image of a bigger object.","I did not experience any issues.","<p>Correct!</p>","null","","","","","","",""
"","null","html-keyboard-response","9","2.0.0","23705","px12rofgcow","bigger","rhino","To see if participants would incorrectly select the smaller image of a bigger object.","I did not experience any issues.","<div style=""font-size:60px;"">+</div>","null","","","","","","",""
"","520","image-keyboard-response","10","2.0.0","24228","px12rofgcow","bigger","rhino","To see if participants would incorrectly select the smaller image of a bigger object.","I did not experience any issues.","stimuli/13-Inongruent.jpg","m","","","","","right","m","true"
"","null","html-keyboard-response","11","2.0.0","25138","px12rofgcow","bigger","rhino","To see if participants would incorrectly select the smaller image of a bigger object.","I did not experience any issues.","<p>Correct!</p>","null","","","","","","",""
"","null","html-keyboard-response","12","2.0.0","26146","px12rofgcow","bigger","rhino","To see if participants would incorrectly select the smaller image of a bigger object.","I did not experience any issues.","<div style=""font-size:60px;"">+</div>","null","","","","","","",""
"","470","image-keyboard-response","13","2.0.0","26618","px12rofgcow","bigger","rhino","To see if participants would incorrectly select the smaller image of a bigger object.","I did not experience any issues.","stimuli/14-Congruent.jpg","z","","","","","left","z","true"
"","null","html-keyboard-response","14","2.0.0","27521","px12rofgcow","bigger","rhino","To see if participants would incorrectly select the smaller image of a bigger object.","I did not experience any issues.","<p>Correct!</p>","null","","","","","","",""
"","null","html-keyboard-response","15","2.0.0","28530","px12rofgcow","bigger","rhino","To see if participants would incorrectly select the smaller image of a bigger object.","I did not experience any issues.","<div style=""font-size:60px;"">+</div>","null","","","","","","",""
"","468","image-keyboard-response","16","2.0.0","29001","px12rofgcow","bigger","rhino","To see if participants would incorrectly select the smaller image of a bigger object.","I did not experience any issues.","stimuli/35-Inongruent.jpg","m","","","","","right","m","true"
"","null","html-keyboard-response","17","2.0.0","29916","px12rofgcow","bigger","rhino","To see if participants would incorrectly select the smaller image of a bigger object.","I did not experience any issues.","<p>Correct!</p>","null","","","","","","",""
"","null","html-keyboard-response","18","2.0.0","30922","px12rofgcow","bigger","rhino","To see if participants would incorrectly select the smaller image of a bigger object.","I did not experience any issues.","<div style=""font-size:60px;"">+</div>","null","","","","","","",""
"","1137","image-keyboard-response","19","2.0.0","32061","px12rofgcow","bigger","rhino","To see if participants would incorrectly select the smaller image of a bigger object.","I did not experience any issues.","stimuli/35-Congruent.jpg","z","","","","","left","z","true"
"","null","html-keyboard-response","20","2.0.0","32970","px12rofgcow","bigger","rhino","To see if participants would incorrectly select the smaller image of a bigger object.","I did not experience any issues.","<p>Correct!</p>","null","","","","","","",""
"","null","html-keyboard-response","21","2.0.0","33980","px12rofgcow","bigger","rhino","To see if participants would incorrectly select the smaller image of a bigger object.","I did not experience any issues.","<div style=""font-size:60px;"">+</div>","null","","","","","","",""
"","670","image-keyboard-response","22","2.0.0","34652","px12rofgcow","bigger","rhino","To see if participants would incorrectly select the smaller image of a bigger object.","I did not experience any issues.","stimuli/24-Congruent.jpg","z","","","","","left","z","true"
"","null","html-keyboard-response","23","2.0.0","35556","px12rofgcow","bigger","rhino","To see if participants would incorrectly select the smaller image of a bigger object.","I did not experience any issues.","<p>Correct!</p>","null","","","","","","",""
"","null","html-keyboard-response","24","2.0.0","36571","px12rofgcow","bigger","rhino","To see if participants would incorrectly select the smaller image of a bigger object.","I did not experience any issues.","<div style=""font-size:60px;"">+</div>","null","","","","","","",""
"","1581","image-keyboard-response","25","2.0.0","38154","px12rofgcow","bigger","rhino","To see if participants would incorrectly select the smaller image of a bigger object.","I did not experience any issues.","stimuli/29-Inongruent.jpg","m","","","","","right","m","true"
"","null","html-keyboard-response","26","2.0.0","39060","px12rofgcow","bigger","rhino","To see if participants would incorrectly select the smaller image of a bigger object.","I did not experience any issues.","<p>Correct!</p>","null","","","","","","",""
"","null","html-keyboard-response","27","2.0.0","40067","px12rofgcow","bigger","rhino","To see if participants would incorrectly select the smaller image of a bigger object.","I did not experience any issues.","<div style=""font-size:60px;"">+</div>","null","","","","","","",""
"","769","image-keyboard-response","28","2.0.0","40838","px12rofgcow","bigger","rhino","To see if participants would incorrectly select the smaller image of a bigger object.","I did not experience any issues.","stimuli/20-Congruent.jpg","z","","","","","left","z","true"
"","null","html-keyboard-response","29","2.0.0","41746","px12rofgcow","bigger","rhino","To see if participants would incorrectly select the smaller image of a bigger object.","I did not experience any issues.","<p>Correct!</p>","null","","","","","","",""
"","null","html-keyboard-response","30","2.0.0","42750","px12rofgcow","bigger","rhino","To see if participants would incorrectly select the smaller image of a bigger object.","I did not experience any issues.","<div style=""font-size:60px;"">+</div>","null","","","","","","",""
"","790","image-keyboard-response","31","2.0.0","43542","px12rofgcow","bigger","rhino","To see if participants would incorrectly select the smaller image of a bigger object.","I did not experience any issues.","stimuli/28-Inongruent.jpg","m","","","","","right","m","true"
"","null","html-keyboard-response","32","2.0.0","44450","px12rofgcow","bigger","rhino","To see if participants would incorrectly select the smaller image of a bigger object.","I did not experience any issues.","<p>Correct!</p>","null","","","","","","",""
"","null","html-keyboard-response","33","2.0.0","45463","px12rofgcow","bigger","rhino","To see if participants would incorrectly select the smaller image of a bigger object.","I did not experience any issues.","<div style=""font-size:60px;"">+</div>","null","","","","","","",""
"","896","image-keyboard-response","34","2.0.0","46362","px12rofgcow","bigger","rhino","To see if participants would incorrectly select the smaller image of a bigger object.","I did not experience any issues.","stimuli/11-Inongruent.jpg","m","","","","","right","m","true"
"","null","html-keyboard-response","35","2.0.0","47267","px12rofgcow","bigger","rhino","To see if participants would incorrectly select the smaller image of a bigger object.","I did not experience any issues.","<p>Correct!</p>","null","","","","","","",""
"","null","html-keyboard-response","36","2.0.0","48273","px12rofgcow","bigger","rhino","To see if participants would incorrectly select the smaller image of a bigger object.","I did not experience any issues.","<div style=""font-size:60px;"">+</div>","null","","","","","","",""
"","1165","image-keyboard-response","37","2.0.0","49441","px12rofgcow","bigger","rhino","To see if participants would incorrectly select the smaller image of a bigger object.","I did not experience any issues.","stimuli/20-Inongruent.jpg","z","","","","","right","m","false"
"","null","html-keyboard-response","38","2.0.0","54458","px12rofgcow","bigger","rhino","To see if participants would incorrectly select the smaller image of a bigger object.","I did not experience any issues.","<p>Incorrect.</p><p>Remember to select the <b>bigger</b> image.</p><p>Continuing in 5 seconds...</p>","null","","","","","","",""
"","null","html-keyboard-response","39","2.0.0","55460","px12rofgcow","bigger","rhino","To see if participants would incorrectly select the smaller image of a bigger object.","I did not experience any issues.","<div style=""font-size:60px;"">+</div>","null","","","","","","",""
"","606","image-keyboard-response","40","2.0.0","56069","px12rofgcow","bigger","rhino","To see if participants would incorrectly select the smaller image of a bigger object.","I did not experience any issues.","stimuli/29-Congruent.jpg","z","","","","","left","z","true"
"","null","html-keyboard-response","41","2.0.0","56981","px12rofgcow","bigger","rhino","To see if participants would incorrectly select the smaller image of a bigger object.","I did not experience any issues.","<p>Correct!</p>","null","","","","","","",""
"","null","html-keyboard-response","42","2.0.0","57990","px12rofgcow","bigger","rhino","To see if participants would incorrectly select the smaller image of a bigger object.","I did not experience any issues.","<div style=""font-size:60px;"">+</div>","null","","","","","","",""
"","521","image-keyboard-response","43","2.0.0","58513","px12rofgcow","bigger","rhino","To see if participants would incorrectly select the smaller image of a bigger object.","I did not experience any issues.","stimuli/3-Congruent.jpg","z","","","","","left","z","true"
"","null","html-keyboard-response","44","2.0.0","59422","px12rofgcow","bigger","rhino","To see if participants would incorrectly select the smaller image of a bigger object.","I did not experience any issues.","<p>Correct!</p>","null","","","","","","",""
"","null","html-keyboard-response","45","2.0.0","60433","px12rofgcow","bigger","rhino","To see if participants would incorrectly select the smaller image of a bigger object.","I did not experience any issues.","<div style=""font-size:60px;"">+</div>","null","","","","","","",""
"","817","image-keyboard-response","46","2.0.0","61253","px12rofgcow","bigger","rhino","To see if participants would incorrectly select the smaller image of a bigger object.","I did not experience any issues.","stimuli/32-Congruent.jpg","z","","","","","left","z","true"
"","null","html-keyboard-response","47","2.0.0","62169","px12rofgcow","bigger","rhino","To see if participants would incorrectly select the smaller image of a bigger object.","I did not experience any issues.","<p>Correct!</p>","null","","","","","","",""
"","null","html-keyboard-response","48","2.0.0","63171","px12rofgcow","bigger","rhino","To see if participants would incorrectly select the smaller image of a bigger object.","I did not experience any issues.","<div style=""font-size:60px;"">+</div>","null","","","","","","",""
"","557","image-keyboard-response","49","2.0.0","63730","px12rofgcow","bigger","rhino","To see if participants would incorrectly select the smaller image of a bigger object.","I did not experience any issues.","stimuli/11-Congruent.jpg","z","","","","","left","z","true"
"","null","html-keyboard-response","50","2.0.0","64646","px12rofgcow","bigger","rhino","To see if participants would incorrectly select the smaller image of a bigger object.","I did not experience any issues.","<p>Correct!</p>","null","","","","","","",""
"","null","html-keyboard-response","51","2.0.0","65648","px12rofgcow","bigger","rhino","To see if participants would incorrectly select the smaller image of a bigger object.","I did not experience any issues.","<div style=""font-size:60px;"">+</div>","null","","","","","","",""
"","372","image-keyboard-response","52","2.0.0","66023","px12rofgcow","bigger","rhino","To see if participants would incorrectly select the smaller image of a bigger object.","I did not experience any issues.","stimuli/30-Congruent.jpg","z","","","","","left","z","true"
"","null","html-keyboard-response","53","2.0.0","66925","px12rofgcow","bigger","rhino","To see if participants would incorrectly select the smaller image of a bigger object.","I did not experience any issues.","<p>Correct!</p>","null","","","","","","",""
"","null","html-keyboard-response","54","2.0.0","67930","px12rofgcow","bigger","rhino","To see if participants would incorrectly select the smaller image of a bigger object.","I did not experience any issues.","<div style=""font-size:60px;"">+</div>","null","","","","","","",""
"","417","image-keyboard-response","55","2.0.0","68351","px12rofgcow","bigger","rhino","To see if participants would incorrectly select the smaller image of a bigger object.","I did not experience any issues.","stimuli/34-Inongruent.jpg","m","","","","","right","m","true"
"","null","html-keyboard-response","56","2.0.0","69268","px12rofgcow","bigger","rhino","To see if participants would incorrectly select the smaller image of a bigger object.","I did not experience any issues.","<p>Correct!</p>","null","","","","","","",""
"","null","html-keyboard-response","57","2.0.0","70279","px12rofgcow","bigger","rhino","To see if participants would incorrectly select the smaller image of a bigger object.","I did not experience any issues.","<div style=""font-size:60px;"">+</div>","null","","","","","","",""
"","372","image-keyboard-response","58","2.0.0","70653","px12rofgcow","bigger","rhino","To see if participants would incorrectly select the smaller image of a bigger object.","I did not experience any issues.","stimuli/7-Congruent.jpg","z","","","","","left","z","true"
"","null","html-keyboard-response","59","2.0.0","71557","px12rofgcow","bigger","rhino","To see if participants would incorrectly select the smaller image of a bigger object.","I did not experience any issues.","<p>Correct!</p>","null","","","","","","",""
"","null","html-keyboard-response","60","2.0.0","72561","px12rofgcow","bigger","rhino","To see if participants would incorrectly select the smaller image of a bigger object.","I did not experience any issues.","<div style=""font-size:60px;"">+</div>","null","","","","","","",""
"","360","image-keyboard-response","61","2.0.0","72924","px12rofgcow","bigger","rhino","To see if participants would incorrectly select the smaller image of a bigger object.","I did not experience any issues.","stimuli/12-Congruent.jpg","z","","","","","left","z","true"
"","null","html-keyboard-response","62","2.0.0","73835","px12rofgcow","bigger","rhino","To see if participants would incorrectly select the smaller image of a bigger object.","I did not experience any issues.","<p>Correct!</p>","null","","","","","","",""
"","null","html-keyboard-response","63","2.0.0","74846","px12rofgcow","bigger","rhino","To see if participants would incorrectly select the smaller image of a bigger object.","I did not experience any issues.","<div style=""font-size:60px;"">+</div>","null","","","","","","",""
"","453","image-keyboard-response","64","2.0.0","75301","px12rofgcow","bigger","rhino","To see if participants would incorrectly select the smaller image of a bigger object.","I did not experience any issues.","stimuli/12-Inongruent.jpg","m","","","","","right","m","true"
"","null","html-keyboard-response","65","2.0.0","76205","px12rofgcow","bigger","rhino","To see if participants would incorrectly select the smaller image of a bigger object.","I did not experience any issues.","<p>Correct!</p>","null","","","","","","",""
"","null","html-keyboard-response","66","2.0.0","77215","px12rofgcow","bigger","rhino","To see if participants would incorrectly select the smaller image of a bigger object.","I did not experience any issues.","<div style=""font-size:60px;"">+</div>","null","","","","","","",""
"","412","image-keyboard-response","67","2.0.0","77629","px12rofgcow","bigger","rhino","To see if participants would incorrectly select the smaller image of a bigger object.","I did not experience any issues.","stimuli/7-Inongruent.jpg","m","","","","","right","m","true"
"","null","html-keyboard-response","68","2.0.0","78544","px12rofgcow","bigger","rhino","To see if participants would incorrectly select the smaller image of a bigger object.","I did not experience any issues.","<p>Correct!</p>","null","","","","","","",""
"","null","html-keyboard-response","69","2.0.0","79555","px12rofgcow","bigger","rhino","To see if participants would incorrectly select the smaller image of a bigger object.","I did not experience any issues.","<div style=""font-size:60px;"">+</div>","null","","","","","","",""
"","390","image-keyboard-response","70","2.0.0","79947","px12rofgcow","bigger","rhino","To see if participants would incorrectly select the smaller image of a bigger object.","I did not experience any issues.","stimuli/35-Inongruent.jpg","m","","","","","right","m","true"
"","null","html-keyboard-response","71","2.0.0","80849","px12rofgcow","bigger","rhino","To see if participants would incorrectly select the smaller image of a bigger object.","I did not experience any issues.","<p>Correct!</p>","null","","","","","","",""
"","null","html-keyboard-response","72","2.0.0","81858","px12rofgcow","bigger","rhino","To see if participants would incorrectly select the smaller image of a bigger object.","I did not experience any issues.","<div style=""font-size:60px;"">+</div>","null","","","","","","",""
"","392","image-keyboard-response","73","2.0.0","82252","px12rofgcow","bigger","rhino","To see if participants would incorrectly select the smaller image of a bigger object.","I did not experience any issues.","stimuli/31-Congruent.jpg","z","","","","","left","z","true"
"","null","html-keyboard-response","74","2.0.0","83159","px12rofgcow","bigger","rhino","To see if participants would incorrectly select the smaller image of a bigger object.","I did not experience any issues.","<p>Correct!</p>","null","","","","","","",""
"","null","html-keyboard-response","75","2.0.0","84175","px12rofgcow","bigger","rhino","To see if participants would incorrectly select the smaller image of a bigger object.","I did not experience any issues.","<div style=""font-size:60px;"">+</div>","null","","","","","","",""
"","480","image-keyboard-response","76","2.0.0","84657","px12rofgcow","bigger","rhino","To see if participants would incorrectly select the smaller image of a bigger object.","I did not experience any issues.","stimuli/4-Congruent.jpg","z","","","","","left","z","true"
"","null","html-keyboard-response","77","2.0.0","85571","px12rofgcow","bigger","rhino","To see if participants would incorrectly select the smaller image of a bigger object.","I did not experience any issues.","<p>Correct!</p>","null","","","","","","",""
"","null","html-keyboard-response","78","2.0.0","86577","px12rofgcow","bigger","rhino","To see if participants would incorrectly select the smaller image of a bigger object.","I did not experience any issues.","<div style=""font-size:60px;"">+</div>","null","","","","","","",""
"","477","image-keyboard-response","79","2.0.0","87057","px12rofgcow","bigger","rhino","To see if participants would incorrectly select the smaller image of a bigger object.","I did not experience any issues.","stimuli/2-Inongruent.jpg","m","","","","","right","m","true"
"","null","html-keyboard-response","80","2.0.0","87971","px12rofgcow","bigger","rhino","To see if participants would incorrectly select the smaller image of a bigger object.","I did not experience any issues.","<p>Correct!</p>","null","","","","","","",""
"","null","html-keyboard-response","81","2.0.0","88988","px12rofgcow","bigger","rhino","To see if participants would incorrectly select the smaller image of a bigger object.","I did not experience any issues.","<div style=""font-size:60px;"">+</div>","null","","","","","","",""
"","461","image-keyboard-response","82","2.0.0","89451","px12rofgcow","bigger","rhino","To see if participants would incorrectly select the smaller image of a bigger object.","I did not experience any issues.","stimuli/33-Congruent.jpg","z","","","","","left","z","true"
"","null","html-keyboard-response","83","2.0.0","90358","px12rofgcow","bigger","rhino","To see if participants would incorrectly select the smaller image of a bigger object.","I did not experience any issues.","<p>Correct!</p>","null","","","","","","",""
"","null","html-keyboard-response","84","2.0.0","91369","px12rofgcow","bigger","rhino","To see if participants would incorrectly select the smaller image of a bigger object.","I did not experience any issues.","<div style=""font-size:60px;"">+</div>","null","","","","","","",""
"","417","image-keyboard-response","85","2.0.0","91789","px12rofgcow","bigger","rhino","To see if participants would incorrectly select the smaller image of a bigger object.","I did not experience any issues.","stimuli/1-Congruent.jpg","z","","","","","left","z","true"
"","null","html-keyboard-response","86","2.0.0","92700","px12rofgcow","bigger","rhino","To see if participants would incorrectly select the smaller image of a bigger object.","I did not experience any issues.","<p>Correct!</p>","null","","","","","","",""
"","null","html-keyboard-response","87","2.0.0","93703","px12rofgcow","bigger","rhino","To see if participants would incorrectly select the smaller image of a bigger object.","I did not experience any issues.","<div style=""font-size:60px;"">+</div>","null","","","","","","",""
"","389","image-keyboard-response","88","2.0.0","94095","px12rofgcow","bigger","rhino","To see if participants would incorrectly select the smaller image of a bigger object.","I did not experience any issues.","stimuli/10-Inongruent.jpg","m","","","","","right","m","true"
"","null","html-keyboard-response","89","2.0.0","95002","px12rofgcow","bigger","rhino","To see if participants would incorrectly select the smaller image of a bigger object.","I did not experience any issues.","<p>Correct!</p>","null","","","","","","",""
"","null","html-keyboard-response","90","2.0.0","96006","px12rofgcow","bigger","rhino","To see if participants would incorrectly select the smaller image of a bigger object.","I did not experience any issues.","<div style=""font-size:60px;"">+</div>","null","","","","","","",""
"","409","image-keyboard-response","91","2.0.0","96418","px12rofgcow","bigger","rhino","To see if participants would incorrectly select the smaller image of a bigger object.","I did not experience any issues.","stimuli/4-Inongruent.jpg","m","","","","","right","m","true"
"","null","html-keyboard-response","92","2.0.0","97322","px12rofgcow","bigger","rhino","To see if participants would incorrectly select the smaller image of a bigger object.","I did not experience any issues.","<p>Correct!</p>","null","","","","","","",""
"","null","html-keyboard-response","93","2.0.0","98334","px12rofgcow","bigger","rhino","To see if participants would incorrectly select the smaller image of a bigger object.","I did not experience any issues.","<div style=""font-size:60px;"">+</div>","null","","","","","","",""
"","415","image-keyboard-response","94","2.0.0","98752","px12rofgcow","bigger","rhino","To see if participants would incorrectly select the smaller image of a bigger object.","I did not experience any issues.","stimuli/16-Congruent.jpg","z","","","","","left","z","true"
"","null","html-keyboard-response","95","2.0.0","99654","px12rofgcow","bigger","rhino","To see if participants would incorrectly select the smaller image of a bigger object.","I did not experience any issues.","<p>Correct!</p>","null","","","","","","",""
"","null","html-keyboard-response","96","2.0.0","100655","px12rofgcow","bigger","rhino","To see if participants would incorrectly select the smaller image of a bigger object.","I did not experience any issues.","<div style=""font-size:60px;"">+</div>","null","","","","","","",""
"","502","image-keyboard-response","97","2.0.0","101160","px12rofgcow","bigger","rhino","To see if participants would incorrectly select the smaller image of a bigger object.","I did not experience any issues.","stimuli/33-Inongruent.jpg","m","","","","","right","m","true"
"","null","html-keyboard-response","98","2.0.0","102068","px12rofgcow","bigger","rhino","To see if participants would incorrectly select the smaller image of a bigger object.","I did not experience any issues.","<p>Correct!</p>","null","","","","","","",""
"","null","html-keyboard-response","99","2.0.0","103074","px12rofgcow","bigger","rhino","To see if participants would incorrectly select the smaller image of a bigger object.","I did not experience any issues.","<div style=""font-size:60px;"">+</div>","null","","","","","","",""
"","419","image-keyboard-response","100","2.0.0","103496","px12rofgcow","bigger","rhino","To see if participants would incorrectly select the smaller image of a bigger object.","I did not experience any issues.","stimuli/21-Congruent.jpg","z","","","","","left","z","true"
"","null","html-keyboard-response","101","2.0.0","104409","px12rofgcow","bigger","rhino","To see if participants would incorrectly select the smaller image of a bigger object.","I did not experience any issues.","<p>Correct!</p>","null","","","","","","",""
"","null","html-keyboard-response","102","2.0.0","105421","px12rofgcow","bigger","rhino","To see if participants would incorrectly select the smaller image of a bigger object.","I did not experience any issues.","<div style=""font-size:60px;"">+</div>","null","","","","","","",""
"","408","image-keyboard-response","103","2.0.0","105831","px12rofgcow","bigger","rhino","To see if participants would incorrectly select the smaller image of a bigger object.","I did not experience any issues.","stimuli/10-Inongruent.jpg","m","","","","","right","m","true"
"","null","html-keyboard-response","104","2.0.0","106744","px12rofgcow","bigger","rhino","To see if participants would incorrectly select the smaller image of a bigger object.","I did not experience any issues.","<p>Correct!</p>","null","","","","","","",""
"","null","html-keyboard-response","105","2.0.0","107756","px12rofgcow","bigger","rhino","To see if participants would incorrectly select the smaller image of a bigger object.","I did not experience any issues.","<div style=""font-size:60px;"">+</div>","null","","","","","","",""
"","422","image-keyboard-response","106","2.0.0","108180","px12rofgcow","bigger","rhino","To see if participants would incorrectly select the smaller image of a bigger object.","I did not experience any issues.","stimuli/36-Inongruent.jpg","m","","","","","right","m","true"
"","null","html-keyboard-response","107","2.0.0","109085","px12rofgcow","bigger","rhino","To see if participants would incorrectly select the smaller image of a bigger object.","I did not experience any issues.","<p>Correct!</p>","null","","","","","","",""
"","null","html-keyboard-response","108","2.0.0","110096","px12rofgcow","bigger","rhino","To see if participants would incorrectly select the smaller image of a bigger object.","I did not experience any issues.","<div style=""font-size:60px;"">+</div>","null","","","","","","",""
"","369","image-keyboard-response","109","2.0.0","110468","px12rofgcow","bigger","rhino","To see if participants would incorrectly select the smaller image of a bigger object.","I did not experience any issues.","stimuli/31-Inongruent.jpg","m","","","","","right","m","true"
"","null","html-keyboard-response","110","2.0.0","111377","px12rofgcow","bigger","rhino","To see if participants would incorrectly select the smaller image of a bigger object.","I did not experience any issues.","<p>Correct!</p>","null","","","","","","",""
"","null","html-keyboard-response","111","2.0.0","112385","px12rofgcow","bigger","rhino","To see if participants would incorrectly select the smaller image of a bigger object.","I did not experience any issues.","<div style=""font-size:60px;"">+</div>","null","","","","","","",""
"","379","image-keyboard-response","112","2.0.0","112766","px12rofgcow","bigger","rhino","To see if participants would incorrectly select the smaller image of a bigger object.","I did not experience any issues.","stimuli/19-Congruent.jpg","z","","","","","left","z","true"
"","null","html-keyboard-response","113","2.0.0","113671","px12rofgcow","bigger","rhino","To see if participants would incorrectly select the smaller image of a bigger object.","I did not experience any issues.","<p>Correct!</p>","null","","","","","","",""
"","null","html-keyboard-response","114","2.0.0","114681","px12rofgcow","bigger","rhino","To see if participants would incorrectly select the smaller image of a bigger object.","I did not experience any issues.","<div style=""font-size:60px;"">+</div>","null","","","","","","",""
"","410","image-keyboard-response","115","2.0.0","115093","px12rofgcow","bigger","rhino","To see if participants would incorrectly select the smaller image of a bigger object.","I did not experience any issues.","stimuli/34-Inongruent.jpg","m","","","","","right","m","true"
"","null","html-keyboard-response","116","2.0.0","115998","px12rofgcow","bigger","rhino","To see if participants would incorrectly select the smaller image of a bigger object.","I did not experience any issues.","<p>Correct!</p>","null","","","","","","",""
"","null","html-keyboard-response","117","2.0.0","117011","px12rofgcow","bigger","rhino","To see if participants would incorrectly select the smaller image of a bigger object.","I did not experience any issues.","<div style=""font-size:60px;"">+</div>","null","","","","","","",""
"","466","image-keyboard-response","118","2.0.0","117479","px12rofgcow","bigger","rhino","To see if participants would incorrectly select the smaller image of a bigger object.","I did not experience any issues.","stimuli/30-Inongruent.jpg","m","","","","","right","m","true"
"","null","html-keyboard-response","119","2.0.0","118388","px12rofgcow","bigger","rhino","To see if participants would incorrectly select the smaller image of a bigger object.","I did not experience any issues.","<p>Correct!</p>","null","","","","","","",""
"","null","html-keyboard-response","120","2.0.0","119405","px12rofgcow","bigger","rhino","To see if participants would incorrectly select the smaller image of a bigger object.","I did not experience any issues.","<div style=""font-size:60px;"">+</div>","null","","","","","","",""
"","366","image-keyboard-response","121","2.0.0","119772","px12rofgcow","bigger","rhino","To see if participants would incorrectly select the smaller image of a bigger object.","I did not experience any issues.","stimuli/15-Inongruent.jpg","m","","","","","right","m","true"
"","null","html-keyboard-response","122","2.0.0","120686","px12rofgcow","bigger","rhino","To see if participants would incorrectly select the smaller image of a bigger object.","I did not experience any issues.","<p>Correct!</p>","null","","","","","","",""
"","null","html-keyboard-response","123","2.0.0","121688","px12rofgcow","bigger","rhino","To see if participants would incorrectly select the smaller image of a bigger object.","I did not experience any issues.","<div style=""font-size:60px;"">+</div>","null","","","","","","",""
"","362","image-keyboard-response","124","2.0.0","122053","px12rofgcow","bigger","rhino","To see if participants would incorrectly select the smaller image of a bigger object.","I did not experience any issues.","stimuli/3-Inongruent.jpg","m","","","","","right","m","true"
"","null","html-keyboard-response","125","2.0.0","122956","px12rofgcow","bigger","rhino","To see if participants would incorrectly select the smaller image of a bigger object.","I did not experience any issues.","<p>Correct!</p>","null","","","","","","",""
"","null","html-keyboard-response","126","2.0.0","123958","px12rofgcow","bigger","rhino","To see if participants would incorrectly select the smaller image of a bigger object.","I did not experience any issues.","<div style=""font-size:60px;"">+</div>","null","","","","","","",""
"","424","image-keyboard-response","127","2.0.0","124384","px12rofgcow","bigger","rhino","To see if participants would incorrectly select the smaller image of a bigger object.","I did not experience any issues.","stimuli/9-Congruent.jpg","z","","","","","left","z","true"
"","null","html-keyboard-response","128","2.0.0","125294","px12rofgcow","bigger","rhino","To see if participants would incorrectly select the smaller image of a bigger object.","I did not experience any issues.","<p>Correct!</p>","null","","","","","","",""
"","null","html-keyboard-response","129","2.0.0","126311","px12rofgcow","bigger","rhino","To see if participants would incorrectly select the smaller image of a bigger object.","I did not experience any issues.","<div style=""font-size:60px;"">+</div>","null","","","","","","",""
"","378","image-keyboard-response","130","2.0.0","126692","px12rofgcow","bigger","rhino","To see if participants would incorrectly select the smaller image of a bigger object.","I did not experience any issues.","stimuli/16-Inongruent.jpg","m","","","","","right","m","true"
"","null","html-keyboard-response","131","2.0.0","127608","px12rofgcow","bigger","rhino","To see if participants would incorrectly select the smaller image of a bigger object.","I did not experience any issues.","<p>Correct!</p>","null","","","","","","",""
"","null","html-keyboard-response","132","2.0.0","128610","px12rofgcow","bigger","rhino","To see if participants would incorrectly select the smaller image of a bigger object.","I did not experience any issues.","<div style=""font-size:60px;"">+</div>","null","","","","","","",""
"","383","image-keyboard-response","133","2.0.0","128995","px12rofgcow","bigger","rhino","To see if participants would incorrectly select the smaller image of a bigger object.","I did not experience any issues.","stimuli/6-Inongruent.jpg","m","","","","","right","m","true"
"","null","html-keyboard-response","134","2.0.0","129905","px12rofgcow","bigger","rhino","To see if participants would incorrectly select the smaller image of a bigger object.","I did not experience any issues.","<p>Correct!</p>","null","","","","","","",""
"","null","html-keyboard-response","135","2.0.0","130921","px12rofgcow","bigger","rhino","To see if participants would incorrectly select the smaller image of a bigger object.","I did not experience any issues.","<div style=""font-size:60px;"">+</div>","null","","","","","","",""
"","316","image-keyboard-response","136","2.0.0","131240","px12rofgcow","bigger","rhino","To see if participants would incorrectly select the smaller image of a bigger object.","I did not experience any issues.","stimuli/2-Congruent.jpg","z","","","","","left","z","true"
"","null","html-keyboard-response","137","2.0.0","132142","px12rofgcow","bigger","rhino","To see if participants would incorrectly select the smaller image of a bigger object.","I did not experience any issues.","<p>Correct!</p>","null","","","","","","",""
"","null","html-keyboard-response","138","2.0.0","133149","px12rofgcow","bigger","rhino","To see if participants would incorrectly select the smaller image of a bigger object.","I did not experience any issues.","<div style=""font-size:60px;"">+</div>","null","","","","","","",""
"","414","image-keyboard-response","139","2.0.0","133565","px12rofgcow","bigger","rhino","To see if participants would incorrectly select the smaller image of a bigger object.","I did not experience any issues.","stimuli/19-Congruent.jpg","z","","","","","left","z","true"
"","null","html-keyboard-response","140","2.0.0","134473","px12rofgcow","bigger","rhino","To see if participants would incorrectly select the smaller image of a bigger object.","I did not experience any issues.","<p>Correct!</p>","null","","","","","","",""
"","null","html-keyboard-response","141","2.0.0","135486","px12rofgcow","bigger","rhino","To see if participants would incorrectly select the smaller image of a bigger object.","I did not experience any issues.","<div style=""font-size:60px;"">+</div>","null","","","","","","",""
"","372","image-keyboard-response","142","2.0.0","135860","px12rofgcow","bigger","rhino","To see if participants would incorrectly select the smaller image of a bigger object.","I did not experience any issues.","stimuli/6-Congruent.jpg","z","","","","","left","z","true"
"","null","html-keyboard-response","143","2.0.0","136777","px12rofgcow","bigger","rhino","To see if participants would incorrectly select the smaller image of a bigger object.","I did not experience any issues.","<p>Correct!</p>","null","","","","","","",""
"","null","html-keyboard-response","144","2.0.0","137787","px12rofgcow","bigger","rhino","To see if participants would incorrectly select the smaller image of a bigger object.","I did not experience any issues.","<div style=""font-size:60px;"">+</div>","null","","","","","","",""
"","401","image-keyboard-response","145","2.0.0","138191","px12rofgcow","bigger","rhino","To see if participants would incorrectly select the smaller image of a bigger object.","I did not experience any issues.","stimuli/29-Congruent.jpg","z","","","","","left","z","true"
"","null","html-keyboard-response","146","2.0.0","139100","px12rofgcow","bigger","rhino","To see if participants would incorrectly select the smaller image of a bigger object.","I did not experience any issues.","<p>Correct!</p>","null","","","","","","",""
"","null","html-keyboard-response","147","2.0.0","140107","px12rofgcow","bigger","rhino","To see if participants would incorrectly select the smaller image of a bigger object.","I did not experience any issues.","<div style=""font-size:60px;"">+</div>","null","","","","","","",""
"","357","image-keyboard-response","148","2.0.0","140467","px12rofgcow","bigger","rhino","To see if participants would incorrectly select the smaller image of a bigger object.","I did not experience any issues.","stimuli/25-Inongruent.jpg","m","","","","","right","m","true"
"","null","html-keyboard-response","149","2.0.0","141376","px12rofgcow","bigger","rhino","To see if participants would incorrectly select the smaller image of a bigger object.","I did not experience any issues.","<p>Correct!</p>","null","","","","","","",""
"","null","html-keyboard-response","150","2.0.0","142380","px12rofgcow","bigger","rhino","To see if participants would incorrectly select the smaller image of a bigger object.","I did not experience any issues.","<div style=""font-size:60px;"">+</div>","null","","","","","","",""
"","345","image-keyboard-response","151","2.0.0","142728","px12rofgcow","bigger","rhino","To see if participants would incorrectly select the smaller image of a bigger object.","I did not experience any issues.","stimuli/27-Congruent.jpg","z","","","","","left","z","true"
"","null","html-keyboard-response","152","2.0.0","143633","px12rofgcow","bigger","rhino","To see if participants would incorrectly select the smaller image of a bigger object.","I did not experience any issues.","<p>Correct!</p>","null","","","","","","",""
"","null","html-keyboard-response","153","2.0.0","144637","px12rofgcow","bigger","rhino","To see if participants would incorrectly select the smaller image of a bigger object.","I did not experience any issues.","<div style=""font-size:60px;"">+</div>","null","","","","","","",""
"","371","image-keyboard-response","154","2.0.0","145010","px12rofgcow","bigger","rhino","To see if participants would incorrectly select the smaller image of a bigger object.","I did not experience any issues.","stimuli/19-Inongruent.jpg","m","","","","","right","m","true"
"","null","html-keyboard-response","155","2.0.0","145916","px12rofgcow","bigger","rhino","To see if participants would incorrectly select the smaller image of a bigger object.","I did not experience any issues.","<p>Correct!</p>","null","","","","","","",""
"","null","html-keyboard-response","156","2.0.0","146931","px12rofgcow","bigger","rhino","To see if participants would incorrectly select the smaller image of a bigger object.","I did not experience any issues.","<div style=""font-size:60px;"">+</div>","null","","","","","","",""
"","412","image-keyboard-response","157","2.0.0","147345","px12rofgcow","bigger","rhino","To see if participants would incorrectly select the smaller image of a bigger object.","I did not experience any issues.","stimuli/6-Inongruent.jpg","m","","","","","right","m","true"
"","null","html-keyboard-response","158","2.0.0","148252","px12rofgcow","bigger","rhino","To see if participants would incorrectly select the smaller image of a bigger object.","I did not experience any issues.","<p>Correct!</p>","null","","","","","","",""
"","null","html-keyboard-response","159","2.0.0","149265","px12rofgcow","bigger","rhino","To see if participants would incorrectly select the smaller image of a bigger object.","I did not experience any issues.","<div style=""font-size:60px;"">+</div>","null","","","","","","",""
"","406","image-keyboard-response","160","2.0.0","149673","px12rofgcow","bigger","rhino","To see if participants would incorrectly select the smaller image of a bigger object.","I did not experience any issues.","stimuli/3-Congruent.jpg","z","","","","","left","z","true"
"","null","html-keyboard-response","161","2.0.0","150587","px12rofgcow","bigger","rhino","To see if participants would incorrectly select the smaller image of a bigger object.","I did not experience any issues.","<p>Correct!</p>","null","","","","","","",""
"","null","html-keyboard-response","162","2.0.0","151603","px12rofgcow","bigger","rhino","To see if participants would incorrectly select the smaller image of a bigger object.","I did not experience any issues.","<div style=""font-size:60px;"">+</div>","null","","","","","","",""
"","355","image-keyboard-response","163","2.0.0","151961","px12rofgcow","bigger","rhino","To see if participants would incorrectly select the smaller image of a bigger object.","I did not experience any issues.","stimuli/23-Congruent.jpg","z","","","","","left","z","true"
"","null","html-keyboard-response","164","2.0.0","152864","px12rofgcow","bigger","rhino","To see if participants would incorrectly select the smaller image of a bigger object.","I did not experience any issues.","<p>Correct!</p>","null","","","","","","",""
"","null","html-keyboard-response","165","2.0.0","153866","px12rofgcow","bigger","rhino","To see if participants would incorrectly select the smaller image of a bigger object.","I did not experience any issues.","<div style=""font-size:60px;"">+</div>","null","","","","","","",""
"","396","image-keyboard-response","166","2.0.0","154265","px12rofgcow","bigger","rhino","To see if participants would incorrectly select the smaller image of a bigger object.","I did not experience any issues.","stimuli/20-Inongruent.jpg","m","","","","","right","m","true"
"","null","html-keyboard-response","167","2.0.0","155177","px12rofgcow","bigger","rhino","To see if participants would incorrectly select the smaller image of a bigger object.","I did not experience any issues.","<p>Correct!</p>","null","","","","","","",""
"","null","html-keyboard-response","168","2.0.0","156180","px12rofgcow","bigger","rhino","To see if participants would incorrectly select the smaller image of a bigger object.","I did not experience any issues.","<div style=""font-size:60px;"">+</div>","null","","","","","","",""
"","334","image-keyboard-response","169","2.0.0","156516","px12rofgcow","bigger","rhino","To see if participants would incorrectly select the smaller image of a bigger object.","I did not experience any issues.","stimuli/36-Congruent.jpg","z","","","","","left","z","true"
"","null","html-keyboard-response","170","2.0.0","157433","px12rofgcow","bigger","rhino","To see if participants would incorrectly select the smaller image of a bigger object.","I did not experience any issues.","<p>Correct!</p>","null","","","","","","",""
"","null","html-keyboard-response","171","2.0.0","158440","px12rofgcow","bigger","rhino","To see if participants would incorrectly select the smaller image of a bigger object.","I did not experience any issues.","<div style=""font-size:60px;"">+</div>","null","","","","","","",""
"","357","image-keyboard-response","172","2.0.0","158799","px12rofgcow","bigger","rhino","To see if participants would incorrectly select the smaller image of a bigger object.","I did not experience any issues.","stimuli/1-Congruent.jpg","z","","","","","left","z","true"
"","null","html-keyboard-response","173","2.0.0","159716","px12rofgcow","bigger","rhino","To see if participants would incorrectly select the smaller image of a bigger object.","I did not experience any issues.","<p>Correct!</p>","null","","","","","","",""
"","null","html-keyboard-response","174","2.0.0","160730","px12rofgcow","bigger","rhino","To see if participants would incorrectly select the smaller image of a bigger object.","I did not experience any issues.","<div style=""font-size:60px;"">+</div>","null","","","","","","",""
"","449","image-keyboard-response","175","2.0.0","161182","px12rofgcow","bigger","rhino","To see if participants would incorrectly select the smaller image of a bigger object.","I did not experience any issues.","stimuli/26-Congruent.jpg","z","","","","","left","z","true"
"","null","html-keyboard-response","176","2.0.0","162097","px12rofgcow","bigger","rhino","To see if participants would incorrectly select the smaller image of a bigger object.","I did not experience any issues.","<p>Correct!</p>","null","","","","","","",""
"","null","html-keyboard-response","177","2.0.0","163110","px12rofgcow","bigger","rhino","To see if participants would incorrectly select the smaller image of a bigger object.","I did not experience any issues.","<div style=""font-size:60px;"">+</div>","null","","","","","","",""
"","408","image-keyboard-response","178","2.0.0","163521","px12rofgcow","bigger","rhino","To see if participants would incorrectly select the smaller image of a bigger object.","I did not experience any issues.","stimuli/14-Inongruent.jpg","m","","","","","right","m","true"
"","86","html-keyboard-response","179","2.0.0","163607","px12rofgcow","bigger","rhino","To see if participants would incorrectly select the smaller image of a bigger object.","I did not experience any issues.","<p>Correct!</p>","m","","","","","","",""
"","null","html-keyboard-response","180","2.0.0","164616","px12rofgcow","bigger","rhino","To see if participants would incorrectly select the smaller image of a bigger object.","I did not experience any issues.","<div style=""font-size:60px;"">+</div>","null","","","","","","",""
"","427","image-keyboard-response","181","2.0.0","165045","px12rofgcow","bigger","rhino","To see if participants would incorrectly select the smaller image of a bigger object.","I did not experience any issues.","stimuli/23-Inongruent.jpg","m","","","","","right","m","true"
"","null","html-keyboard-response","182","2.0.0","165952","px12rofgcow","bigger","rhino","To see if participants would incorrectly select the smaller image of a bigger object.","I did not experience any issues.","<p>Correct!</p>","null","","","","","","",""
"","null","html-keyboard-response","183","2.0.0","166967","px12rofgcow","bigger","rhino","To see if participants would incorrectly select the smaller image of a bigger object.","I did not experience any issues.","<div style=""font-size:60px;"">+</div>","null","","","","","","",""
"","372","image-keyboard-response","184","2.0.0","167342","px12rofgcow","bigger","rhino","To see if participants would incorrectly select the smaller image of a bigger object.","I did not experience any issues.","stimuli/27-Inongruent.jpg","m","","","","","right","m","true"
"","null","html-keyboard-response","185","2.0.0","168257","px12rofgcow","bigger","rhino","To see if participants would incorrectly select the smaller image of a bigger object.","I did not experience any issues.","<p>Correct!</p>","null","","","","","","",""
"","null","html-keyboard-response","186","2.0.0","169263","px12rofgcow","bigger","rhino","To see if participants would incorrectly select the smaller image of a bigger object.","I did not experience any issues.","<div style=""font-size:60px;"">+</div>","null","","","","","","",""
"","399","image-keyboard-response","187","2.0.0","169665","px12rofgcow","bigger","rhino","To see if participants would incorrectly select the smaller image of a bigger object.","I did not experience any issues.","stimuli/12-Inongruent.jpg","m","","","","","right","m","true"
"","null","html-keyboard-response","188","2.0.0","170581","px12rofgcow","bigger","rhino","To see if participants would incorrectly select the smaller image of a bigger object.","I did not experience any issues.","<p>Correct!</p>","null","","","","","","",""
"","null","html-keyboard-response","189","2.0.0","171588","px12rofgcow","bigger","rhino","To see if participants would incorrectly select the smaller image of a bigger object.","I did not experience any issues.","<div style=""font-size:60px;"">+</div>","null","","","","","","",""
"","364","image-keyboard-response","190","2.0.0","171955","px12rofgcow","bigger","rhino","To see if participants would incorrectly select the smaller image of a bigger object.","I did not experience any issues.","stimuli/8-Congruent.jpg","z","","","","","left","z","true"
"","null","html-keyboard-response","191","2.0.0","172871","px12rofgcow","bigger","rhino","To see if participants would incorrectly select the smaller image of a bigger object.","I did not experience any issues.","<p>Correct!</p>","null","","","","","","",""
"","null","html-keyboard-response","192","2.0.0","173888","px12rofgcow","bigger","rhino","To see if participants would incorrectly select the smaller image of a bigger object.","I did not experience any issues.","<div style=""font-size:60px;"">+</div>","null","","","","","","",""
"","358","image-keyboard-response","193","2.0.0","174249","px12rofgcow","bigger","rhino","To see if participants would incorrectly select the smaller image of a bigger object.","I did not experience any issues.","stimuli/19-Inongruent.jpg","m","","","","","right","m","true"
"","null","html-keyboard-response","194","2.0.0","175165","px12rofgcow","bigger","rhino","To see if participants would incorrectly select the smaller image of a bigger object.","I did not experience any issues.","<p>Correct!</p>","null","","","","","","",""
"","null","html-keyboard-response","195","2.0.0","176172","px12rofgcow","bigger","rhino","To see if participants would incorrectly select the smaller image of a bigger object.","I did not experience any issues.","<div style=""font-size:60px;"">+</div>","null","","","","","","",""
"","424","image-keyboard-response","196","2.0.0","176599","px12rofgcow","bigger","rhino","To see if participants would incorrectly select the smaller image of a bigger object.","I did not experience any issues.","stimuli/21-Inongruent.jpg","m","","","","","right","m","true"
"","null","html-keyboard-response","197","2.0.0","177508","px12rofgcow","bigger","rhino","To see if participants would incorrectly select the smaller image of a bigger object.","I did not experience any issues.","<p>Correct!</p>","null","","","","","","",""
"","null","html-keyboard-response","198","2.0.0","178523","px12rofgcow","bigger","rhino","To see if participants would incorrectly select the smaller image of a bigger object.","I did not experience any issues.","<div style=""font-size:60px;"">+</div>","null","","","","","","",""
"","435","image-keyboard-response","199","2.0.0","178960","px12rofgcow","bigger","rhino","To see if participants would incorrectly select the smaller image of a bigger object.","I did not experience any issues.","stimuli/28-Inongruent.jpg","m","","","","","right","m","true"
"","null","html-keyboard-response","200","2.0.0","179869","px12rofgcow","bigger","rhino","To see if participants would incorrectly select the smaller image of a bigger object.","I did not experience any issues.","<p>Correct!</p>","null","","","","","","",""
"","null","html-keyboard-response","201","2.0.0","180874","px12rofgcow","bigger","rhino","To see if participants would incorrectly select the smaller image of a bigger object.","I did not experience any issues.","<div style=""font-size:60px;"">+</div>","null","","","","","","",""
"","382","image-keyboard-response","202","2.0.0","181258","px12rofgcow","bigger","rhino","To see if participants would incorrectly select the smaller image of a bigger object.","I did not experience any issues.","stimuli/32-Inongruent.jpg","m","","","","","right","m","true"
"","null","html-keyboard-response","203","2.0.0","182165","px12rofgcow","bigger","rhino","To see if participants would incorrectly select the smaller image of a bigger object.","I did not experience any issues.","<p>Correct!</p>","null","","","","","","",""
"","null","html-keyboard-response","204","2.0.0","183179","px12rofgcow","bigger","rhino","To see if participants would incorrectly select the smaller image of a bigger object.","I did not experience any issues.","<div style=""font-size:60px;"">+</div>","null","","","","","","",""
"","348","image-keyboard-response","205","2.0.0","183529","px12rofgcow","bigger","rhino","To see if participants would incorrectly select the smaller image of a bigger object.","I did not experience any issues.","stimuli/9-Congruent.jpg","z","","","","","left","z","true"
"","null","html-keyboard-response","206","2.0.0","184434","px12rofgcow","bigger","rhino","To see if participants would incorrectly select the smaller image of a bigger object.","I did not experience any issues.","<p>Correct!</p>","null","","","","","","",""
"","null","html-keyboard-response","207","2.0.0","185450","px12rofgcow","bigger","rhino","To see if participants would incorrectly select the smaller image of a bigger object.","I did not experience any issues.","<div style=""font-size:60px;"">+</div>","null","","","","","","",""
"","370","image-keyboard-response","208","2.0.0","185823","px12rofgcow","bigger","rhino","To see if participants would incorrectly select the smaller image of a bigger object.","I did not experience any issues.","stimuli/13-Congruent.jpg","z","","","","","left","z","true"
"","null","html-keyboard-response","209","2.0.0","186738","px12rofgcow","bigger","rhino","To see if participants would incorrectly select the smaller image of a bigger object.","I did not experience any issues.","<p>Correct!</p>","null","","","","","","",""
"","null","html-keyboard-response","210","2.0.0","187749","px12rofgcow","bigger","rhino","To see if participants would incorrectly select the smaller image of a bigger object.","I did not experience any issues.","<div style=""font-size:60px;"">+</div>","null","","","","","","",""
"","391","image-keyboard-response","211","2.0.0","188142","px12rofgcow","bigger","rhino","To see if participants would incorrectly select the smaller image of a bigger object.","I did not experience any issues.","stimuli/23-Congruent.jpg","z","","","","","left","z","true"
"","null","html-keyboard-response","212","2.0.0","189045","px12rofgcow","bigger","rhino","To see if participants would incorrectly select the smaller image of a bigger object.","I did not experience any issues.","<p>Correct!</p>","null","","","","","","",""
"","null","html-keyboard-response","213","2.0.0","190052","px12rofgcow","bigger","rhino","To see if participants would incorrectly select the smaller image of a bigger object.","I did not experience any issues.","<div style=""font-size:60px;"">+</div>","null","","","","","","",""
"","433","image-keyboard-response","214","2.0.0","190488","px12rofgcow","bigger","rhino","To see if participants would incorrectly select the smaller image of a bigger object.","I did not experience any issues.","stimuli/17-Inongruent.jpg","m","","","","","right","m","true"
"","null","html-keyboard-response","215","2.0.0","191395","px12rofgcow","bigger","rhino","To see if participants would incorrectly select the smaller image of a bigger object.","I did not experience any issues.","<p>Correct!</p>","null","","","","","","",""
"","null","html-keyboard-response","216","2.0.0","192405","px12rofgcow","bigger","rhino","To see if participants would incorrectly select the smaller image of a bigger object.","I did not experience any issues.","<div style=""font-size:60px;"">+</div>","null","","","","","","",""
"","373","image-keyboard-response","217","2.0.0","192781","px12rofgcow","bigger","rhino","To see if participants would incorrectly select the smaller image of a bigger object.","I did not experience any issues.","stimuli/22-Congruent.jpg","z","","","","","left","z","true"
"","null","html-keyboard-response","218","2.0.0","193685","px12rofgcow","bigger","rhino","To see if participants would incorrectly select the smaller image of a bigger object.","I did not experience any issues.","<p>Correct!</p>","null","","","","","","",""
"","null","html-keyboard-response","219","2.0.0","194691","px12rofgcow","bigger","rhino","To see if participants would incorrectly select the smaller image of a bigger object.","I did not experience any issues.","<div style=""font-size:60px;"">+</div>","null","","","","","","",""
"","362","image-keyboard-response","220","2.0.0","195056","px12rofgcow","bigger","rhino","To see if participants would incorrectly select the smaller image of a bigger object.","I did not experience any issues.","stimuli/21-Inongruent.jpg","m","","","","","right","m","true"
"","null","html-keyboard-response","221","2.0.0","195971","px12rofgcow","bigger","rhino","To see if participants would incorrectly select the smaller image of a bigger object.","I did not experience any issues.","<p>Correct!</p>","null","","","","","","",""
"","null","html-keyboard-response","222","2.0.0","196979","px12rofgcow","bigger","rhino","To see if participants would incorrectly select the smaller image of a bigger object.","I did not experience any issues.","<div style=""font-size:60px;"">+</div>","null","","","","","","",""
"","382","image-keyboard-response","223","2.0.0","197363","px12rofgcow","bigger","rhino","To see if participants would incorrectly select the smaller image of a bigger object.","I did not experience any issues.","stimuli/30-Inongruent.jpg","m","","","","","right","m","true"
"","null","html-keyboard-response","224","2.0.0","198265","px12rofgcow","bigger","rhino","To see if participants would incorrectly select the smaller image of a bigger object.","I did not experience any issues.","<p>Correct!</p>","null","","","","","","",""
"","null","html-keyboard-response","225","2.0.0","199268","px12rofgcow","bigger","rhino","To see if participants would incorrectly select the smaller image of a bigger object.","I did not experience any issues.","<div style=""font-size:60px;"">+</div>","null","","","","","","",""
"","380","image-keyboard-response","226","2.0.0","199651","px12rofgcow","bigger","rhino","To see if participants would incorrectly select the smaller image of a bigger object.","I did not experience any issues.","stimuli/32-Congruent.jpg","z","","","","","left","z","true"
"","null","html-keyboard-response","227","2.0.0","200560","px12rofgcow","bigger","rhino","To see if participants would incorrectly select the smaller image of a bigger object.","I did not experience any issues.","<p>Correct!</p>","null","","","","","","",""
"","null","html-keyboard-response","228","2.0.0","201577","px12rofgcow","bigger","rhino","To see if participants would incorrectly select the smaller image of a bigger object.","I did not experience any issues.","<div style=""font-size:60px;"">+</div>","null","","","","","","",""
"","594","image-keyboard-response","229","2.0.0","202174","px12rofgcow","bigger","rhino","To see if participants would incorrectly select the smaller image of a bigger object.","I did not experience any issues.","stimuli/18-Congruent.jpg","z","","","","","left","z","true"
"","null","html-keyboard-response","230","2.0.0","203075","px12rofgcow","bigger","rhino","To see if participants would incorrectly select the smaller image of a bigger object.","I did not experience any issues.","<p>Correct!</p>","null","","","","","","",""
"","null","html-keyboard-response","231","2.0.0","204084","px12rofgcow","bigger","rhino","To see if participants would incorrectly select the smaller image of a bigger object.","I did not experience any issues.","<div style=""font-size:60px;"">+</div>","null","","","","","","",""
"","434","image-keyboard-response","232","2.0.0","204520","px12rofgcow","bigger","rhino","To see if participants would incorrectly select the smaller image of a bigger object.","I did not experience any issues.","stimuli/36-Inongruent.jpg","m","","","","","right","m","true"
"","null","html-keyboard-response","233","2.0.0","205424","px12rofgcow","bigger","rhino","To see if participants would incorrectly select the smaller image of a bigger object.","I did not experience any issues.","<p>Correct!</p>","null","","","","","","",""
"","null","html-keyboard-response","234","2.0.0","206432","px12rofgcow","bigger","rhino","To see if participants would incorrectly select the smaller image of a bigger object.","I did not experience any issues.","<div style=""font-size:60px;"">+</div>","null","","","","","","",""
"","321","image-keyboard-response","235","2.0.0","206756","px12rofgcow","bigger","rhino","To see if participants would incorrectly select the smaller image of a bigger object.","I did not experience any issues.","stimuli/18-Congruent.jpg","z","","","","","left","z","true"
"","null","html-keyboard-response","236","2.0.0","207660","px12rofgcow","bigger","rhino","To see if participants would incorrectly select the smaller image of a bigger object.","I did not experience any issues.","<p>Correct!</p>","null","","","","","","",""
"","null","html-keyboard-response","237","2.0.0","208674","px12rofgcow","bigger","rhino","To see if participants would incorrectly select the smaller image of a bigger object.","I did not experience any issues.","<div style=""font-size:60px;"">+</div>","null","","","","","","",""
"","439","image-keyboard-response","238","2.0.0","209116","px12rofgcow","bigger","rhino","To see if participants would incorrectly select the smaller image of a bigger object.","I did not experience any issues.","stimuli/14-Congruent.jpg","z","","","","","left","z","true"
"","null","html-keyboard-response","239","2.0.0","210029","px12rofgcow","bigger","rhino","To see if participants would incorrectly select the smaller image of a bigger object.","I did not experience any issues.","<p>Correct!</p>","null","","","","","","",""
"","null","html-keyboard-response","240","2.0.0","211030","px12rofgcow","bigger","rhino","To see if participants would incorrectly select the smaller image of a bigger object.","I did not experience any issues.","<div style=""font-size:60px;"">+</div>","null","","","","","","",""
"","373","image-keyboard-response","241","2.0.0","211405","px12rofgcow","bigger","rhino","To see if participants would incorrectly select the smaller image of a bigger object.","I did not experience any issues.","stimuli/8-Inongruent.jpg","m","","","","","right","m","true"
"","null","html-keyboard-response","242","2.0.0","212322","px12rofgcow","bigger","rhino","To see if participants would incorrectly select the smaller image of a bigger object.","I did not experience any issues.","<p>Correct!</p>","null","","","","","","",""
"","null","html-keyboard-response","243","2.0.0","213338","px12rofgcow","bigger","rhino","To see if participants would incorrectly select the smaller image of a bigger object.","I did not experience any issues.","<div style=""font-size:60px;"">+</div>","null","","","","","","",""
"","364","image-keyboard-response","244","2.0.0","213704","px12rofgcow","bigger","rhino","To see if participants would incorrectly select the smaller image of a bigger object.","I did not experience any issues.","stimuli/15-Inongruent.jpg","m","","","","","right","m","true"
"","null","html-keyboard-response","245","2.0.0","214606","px12rofgcow","bigger","rhino","To see if participants would incorrectly select the smaller image of a bigger object.","I did not experience any issues.","<p>Correct!</p>","null","","","","","","",""
"","null","html-keyboard-response","246","2.0.0","215619","px12rofgcow","bigger","rhino","To see if participants would incorrectly select the smaller image of a bigger object.","I did not experience any issues.","<div style=""font-size:60px;"">+</div>","null","","","","","","",""
"","405","image-keyboard-response","247","2.0.0","216026","px12rofgcow","bigger","rhino","To see if participants would incorrectly select the smaller image of a bigger object.","I did not experience any issues.","stimuli/33-Inongruent.jpg","m","","","","","right","m","true"
"","null","html-keyboard-response","248","2.0.0","216933","px12rofgcow","bigger","rhino","To see if participants would incorrectly select the smaller image of a bigger object.","I did not experience any issues.","<p>Correct!</p>","null","","","","","","",""
"","null","html-keyboard-response","249","2.0.0","217940","px12rofgcow","bigger","rhino","To see if participants would incorrectly select the smaller image of a bigger object.","I did not experience any issues.","<div style=""font-size:60px;"">+</div>","null","","","","","","",""
"","331","image-keyboard-response","250","2.0.0","218274","px12rofgcow","bigger","rhino","To see if participants would incorrectly select the smaller image of a bigger object.","I did not experience any issues.","stimuli/21-Congruent.jpg","z","","","","","left","z","true"
"","null","html-keyboard-response","251","2.0.0","219190","px12rofgcow","bigger","rhino","To see if participants would incorrectly select the smaller image of a bigger object.","I did not experience any issues.","<p>Correct!</p>","null","","","","","","",""
"","null","html-keyboard-response","252","2.0.0","220193","px12rofgcow","bigger","rhino","To see if participants would incorrectly select the smaller image of a bigger object.","I did not experience any issues.","<div style=""font-size:60px;"">+</div>","null","","","","","","",""
"","361","image-keyboard-response","253","2.0.0","220557","px12rofgcow","bigger","rhino","To see if participants would incorrectly select the smaller image of a bigger object.","I did not experience any issues.","stimuli/26-Inongruent.jpg","m","","","","","right","m","true"
"","null","html-keyboard-response","254","2.0.0","221474","px12rofgcow","bigger","rhino","To see if participants would incorrectly select the smaller image of a bigger object.","I did not experience any issues.","<p>Correct!</p>","null","","","","","","",""
"","null","html-keyboard-response","255","2.0.0","222481","px12rofgcow","bigger","rhino","To see if participants would incorrectly select the smaller image of a bigger object.","I did not experience any issues.","<div style=""font-size:60px;"">+</div>","null","","","","","","",""
"","338","image-keyboard-response","256","2.0.0","222821","px12rofgcow","bigger","rhino","To see if participants would incorrectly select the smaller image of a bigger object.","I did not experience any issues.","stimuli/17-Congruent.jpg","z","","","","","left","z","true"
"","null","html-keyboard-response","257","2.0.0","223731","px12rofgcow","bigger","rhino","To see if participants would incorrectly select the smaller image of a bigger object.","I did not experience any issues.","<p>Correct!</p>","null","","","","","","",""
"","null","html-keyboard-response","258","2.0.0","224744","px12rofgcow","bigger","rhino","To see if participants would incorrectly select the smaller image of a bigger object.","I did not experience any issues.","<div style=""font-size:60px;"">+</div>","null","","","","","","",""
"","331","image-keyboard-response","259","2.0.0","225077","px12rofgcow","bigger","rhino","To see if participants would incorrectly select the smaller image of a bigger object.","I did not experience any issues.","stimuli/3-Inongruent.jpg","m","","","","","right","m","true"
"","null","html-keyboard-response","260","2.0.0","225984","px12rofgcow","bigger","rhino","To see if participants would incorrectly select the smaller image of a bigger object.","I did not experience any issues.","<p>Correct!</p>","null","","","","","","",""
"","null","html-keyboard-response","261","2.0.0","227001","px12rofgcow","bigger","rhino","To see if participants would incorrectly select the smaller image of a bigger object.","I did not experience any issues.","<div style=""font-size:60px;"">+</div>","null","","","","","","",""
"","371","image-keyboard-response","262","2.0.0","227375","px12rofgcow","bigger","rhino","To see if participants would incorrectly select the smaller image of a bigger object.","I did not experience any issues.","stimuli/9-Inongruent.jpg","m","","","","","right","m","true"
"","null","html-keyboard-response","263","2.0.0","228286","px12rofgcow","bigger","rhino","To see if participants would incorrectly select the smaller image of a bigger object.","I did not experience any issues.","<p>Correct!</p>","null","","","","","","",""
"","null","html-keyboard-response","264","2.0.0","229303","px12rofgcow","bigger","rhino","To see if participants would incorrectly select the smaller image of a bigger object.","I did not experience any issues.","<div style=""font-size:60px;"">+</div>","null","","","","","","",""
"","357","image-keyboard-response","265","2.0.0","229663","px12rofgcow","bigger","rhino","To see if participants would incorrectly select the smaller image of a bigger object.","I did not experience any issues.","stimuli/26-Congruent.jpg","z","","","","","left","z","true"
"","null","html-keyboard-response","266","2.0.0","230574","px12rofgcow","bigger","rhino","To see if participants would incorrectly select the smaller image of a bigger object.","I did not experience any issues.","<p>Correct!</p>","null","","","","","","",""
"","null","html-keyboard-response","267","2.0.0","231582","px12rofgcow","bigger","rhino","To see if participants would incorrectly select the smaller image of a bigger object.","I did not experience any issues.","<div style=""font-size:60px;"">+</div>","null","","","","","","",""
"","614","image-keyboard-response","268","2.0.0","232198","px12rofgcow","bigger","rhino","To see if participants would incorrectly select the smaller image of a bigger object.","I did not experience any issues.","stimuli/22-Congruent.jpg","z","","","","","left","z","true"
"","null","html-keyboard-response","269","2.0.0","233106","px12rofgcow","bigger","rhino","To see if participants would incorrectly select the smaller image of a bigger object.","I did not experience any issues.","<p>Correct!</p>","null","","","","","","",""
"","null","html-keyboard-response","270","2.0.0","234118","px12rofgcow","bigger","rhino","To see if participants would incorrectly select the smaller image of a bigger object.","I did not experience any issues.","<div style=""font-size:60px;"">+</div>","null","","","","","","",""
"","373","image-keyboard-response","271","2.0.0","234493","px12rofgcow","bigger","rhino","To see if participants would incorrectly select the smaller image of a bigger object.","I did not experience any issues.","stimuli/24-Inongruent.jpg","m","","","","","right","m","true"
"","null","html-keyboard-response","272","2.0.0","235407","px12rofgcow","bigger","rhino","To see if participants would incorrectly select the smaller image of a bigger object.","I did not experience any issues.","<p>Correct!</p>","null","","","","","","",""
"","null","html-keyboard-response","273","2.0.0","236411","px12rofgcow","bigger","rhino","To see if participants would incorrectly select the smaller image of a bigger object.","I did not experience any issues.","<div style=""font-size:60px;"">+</div>","null","","","","","","",""
"","343","image-keyboard-response","274","2.0.0","236756","px12rofgcow","bigger","rhino","To see if participants would incorrectly select the smaller image of a bigger object.","I did not experience any issues.","stimuli/5-Inongruent.jpg","m","","","","","right","m","true"
"","null","html-keyboard-response","275","2.0.0","237667","px12rofgcow","bigger","rhino","To see if participants would incorrectly select the smaller image of a bigger object.","I did not experience any issues.","<p>Correct!</p>","null","","","","","","",""
"","null","html-keyboard-response","276","2.0.0","238677","px12rofgcow","bigger","rhino","To see if participants would incorrectly select the smaller image of a bigger object.","I did not experience any issues.","<div style=""font-size:60px;"">+</div>","null","","","","","","",""
"","355","image-keyboard-response","277","2.0.0","239035","px12rofgcow","bigger","rhino","To see if participants would incorrectly select the smaller image of a bigger object.","I did not experience any issues.","stimuli/34-Congruent.jpg","z","","","","","left","z","true"
"","null","html-keyboard-response","278","2.0.0","239944","px12rofgcow","bigger","rhino","To see if participants would incorrectly select the smaller image of a bigger object.","I did not experience any issues.","<p>Correct!</p>","null","","","","","","",""
"","null","html-keyboard-response","279","2.0.0","240962","px12rofgcow","bigger","rhino","To see if participants would incorrectly select the smaller image of a bigger object.","I did not experience any issues.","<div style=""font-size:60px;"">+</div>","null","","","","","","",""
"","360","image-keyboard-response","280","2.0.0","241324","px12rofgcow","bigger","rhino","To see if participants would incorrectly select the smaller image of a bigger object.","I did not experience any issues.","stimuli/12-Congruent.jpg","z","","","","","left","z","true"
"","null","html-keyboard-response","281","2.0.0","242235","px12rofgcow","bigger","rhino","To see if participants would incorrectly select the smaller image of a bigger object.","I did not experience any issues.","<p>Correct!</p>","null","","","","","","",""
"","null","html-keyboard-response","282","2.0.0","243247","px12rofgcow","bigger","rhino","To see if participants would incorrectly select the smaller image of a bigger object.","I did not experience any issues.","<div style=""font-size:60px;"">+</div>","null","","","","","","",""
"","446","image-keyboard-response","283","2.0.0","243696","px12rofgcow","bigger","rhino","To see if participants would incorrectly select the smaller image of a bigger object.","I did not experience any issues.","stimuli/23-Inongruent.jpg","m","","","","","right","m","true"
"","null","html-keyboard-response","284","2.0.0","244602","px12rofgcow","bigger","rhino","To see if participants would incorrectly select the smaller image of a bigger object.","I did not experience any issues.","<p>Correct!</p>","null","","","","","","",""
"","null","html-keyboard-response","285","2.0.0","245605","px12rofgcow","bigger","rhino","To see if participants would incorrectly select the smaller image of a bigger object.","I did not experience any issues.","<div style=""font-size:60px;"">+</div>","null","","","","","","",""
"","457","image-keyboard-response","286","2.0.0","246064","px12rofgcow","bigger","rhino","To see if participants would incorrectly select the smaller image of a bigger object.","I did not experience any issues.","stimuli/27-Congruent.jpg","z","","","","","left","z","true"
"","null","html-keyboard-response","287","2.0.0","246976","px12rofgcow","bigger","rhino","To see if participants would incorrectly select the smaller image of a bigger object.","I did not experience any issues.","<p>Correct!</p>","null","","","","","","",""
"","null","html-keyboard-response","288","2.0.0","247984","px12rofgcow","bigger","rhino","To see if participants would incorrectly select the smaller image of a bigger object.","I did not experience any issues.","<div style=""font-size:60px;"">+</div>","null","","","","","","",""
"","374","image-keyboard-response","289","2.0.0","248361","px12rofgcow","bigger","rhino","To see if participants would incorrectly select the smaller image of a bigger object.","I did not experience any issues.","stimuli/34-Congruent.jpg","z","","","","","left","z","true"
"","null","html-keyboard-response","290","2.0.0","249269","px12rofgcow","bigger","rhino","To see if participants would incorrectly select the smaller image of a bigger object.","I did not experience any issues.","<p>Correct!</p>","null","","","","","","",""
"","null","html-keyboard-response","291","2.0.0","250271","px12rofgcow","bigger","rhino","To see if participants would incorrectly select the smaller image of a bigger object.","I did not experience any issues.","<div style=""font-size:60px;"">+</div>","null","","","","","","",""
"","513","image-keyboard-response","292","2.0.0","250787","px12rofgcow","bigger","rhino","To see if participants would incorrectly select the smaller image of a bigger object.","I did not experience any issues.","stimuli/1-Inongruent.jpg","m","","","","","right","m","true"
"","null","html-keyboard-response","293","2.0.0","251692","px12rofgcow","bigger","rhino","To see if participants would incorrectly select the smaller image of a bigger object.","I did not experience any issues.","<p>Correct!</p>","null","","","","","","",""
"","null","html-keyboard-response","294","2.0.0","252700","px12rofgcow","bigger","rhino","To see if participants would incorrectly select the smaller image of a bigger object.","I did not experience any issues.","<div style=""font-size:60px;"">+</div>","null","","","","","","",""
"","328","image-keyboard-response","295","2.0.0","253030","px12rofgcow","bigger","rhino","To see if participants would incorrectly select the smaller image of a bigger object.","I did not experience any issues.","stimuli/13-Congruent.jpg","z","","","","","left","z","true"
"","null","html-keyboard-response","296","2.0.0","253948","px12rofgcow","bigger","rhino","To see if participants would incorrectly select the smaller image of a bigger object.","I did not experience any issues.","<p>Correct!</p>","null","","","","","","",""
"","null","html-keyboard-response","297","2.0.0","254955","px12rofgcow","bigger","rhino","To see if participants would incorrectly select the smaller image of a bigger object.","I did not experience any issues.","<div style=""font-size:60px;"">+</div>","null","","","","","","",""
"","362","image-keyboard-response","298","2.0.0","255319","px12rofgcow","bigger","rhino","To see if participants would incorrectly select the smaller image of a bigger object.","I did not experience any issues.","stimuli/25-Congruent.jpg","z","","","","","left","z","true"
"","null","html-keyboard-response","299","2.0.0","256221","px12rofgcow","bigger","rhino","To see if participants would incorrectly select the smaller image of a bigger object.","I did not experience any issues.","<p>Correct!</p>","null","","","","","","",""
"","null","html-keyboard-response","300","2.0.0","257228","px12rofgcow","bigger","rhino","To see if participants would incorrectly select the smaller image of a bigger object.","I did not experience any issues.","<div style=""font-size:60px;"">+</div>","null","","","","","","",""
"","353","image-keyboard-response","301","2.0.0","257584","px12rofgcow","bigger","rhino","To see if participants would incorrectly select the smaller image of a bigger object.","I did not experience any issues.","stimuli/24-Congruent.jpg","z","","","","","left","z","true"
"","null","html-keyboard-response","302","2.0.0","258500","px12rofgcow","bigger","rhino","To see if participants would incorrectly select the smaller image of a bigger object.","I did not experience any issues.","<p>Correct!</p>","null","","","","","","",""
"","null","html-keyboard-response","303","2.0.0","259506","px12rofgcow","bigger","rhino","To see if participants would incorrectly select the smaller image of a bigger object.","I did not experience any issues.","<div style=""font-size:60px;"">+</div>","null","","","","","","",""
"","365","image-keyboard-response","304","2.0.0","259874","px12rofgcow","bigger","rhino","To see if participants would incorrectly select the smaller image of a bigger object.","I did not experience any issues.","stimuli/17-Congruent.jpg","z","","","","","left","z","true"
"","null","html-keyboard-response","305","2.0.0","260788","px12rofgcow","bigger","rhino","To see if participants would incorrectly select the smaller image of a bigger object.","I did not experience any issues.","<p>Correct!</p>","null","","","","","","",""
"","null","html-keyboard-response","306","2.0.0","261790","px12rofgcow","bigger","rhino","To see if participants would incorrectly select the smaller image of a bigger object.","I did not experience any issues.","<div style=""font-size:60px;"">+</div>","null","","","","","","",""
"","364","image-keyboard-response","307","2.0.0","262157","px12rofgcow","bigger","rhino","To see if participants would incorrectly select the smaller image of a bigger object.","I did not experience any issues.","stimuli/2-Inongruent.jpg","m","","","","","right","m","true"
"","null","html-keyboard-response","308","2.0.0","263060","px12rofgcow","bigger","rhino","To see if participants would incorrectly select the smaller image of a bigger object.","I did not experience any issues.","<p>Correct!</p>","null","","","","","","",""
"","null","html-keyboard-response","309","2.0.0","264065","px12rofgcow","bigger","rhino","To see if participants would incorrectly select the smaller image of a bigger object.","I did not experience any issues.","<div style=""font-size:60px;"">+</div>","null","","","","","","",""
"","338","image-keyboard-response","310","2.0.0","264405","px12rofgcow","bigger","rhino","To see if participants would incorrectly select the smaller image of a bigger object.","I did not experience any issues.","stimuli/11-Congruent.jpg","z","","","","","left","z","true"
"","null","html-keyboard-response","311","2.0.0","265313","px12rofgcow","bigger","rhino","To see if participants would incorrectly select the smaller image of a bigger object.","I did not experience any issues.","<p>Correct!</p>","null","","","","","","",""
"","null","html-keyboard-response","312","2.0.0","266319","px12rofgcow","bigger","rhino","To see if participants would incorrectly select the smaller image of a bigger object.","I did not experience any issues.","<div style=""font-size:60px;"">+</div>","null","","","","","","",""
"","334","image-keyboard-response","313","2.0.0","266656","px12rofgcow","bigger","rhino","To see if participants would incorrectly select the smaller image of a bigger object.","I did not experience any issues.","stimuli/10-Congruent.jpg","z","","","","","left","z","true"
"","null","html-keyboard-response","314","2.0.0","267564","px12rofgcow","bigger","rhino","To see if participants would incorrectly select the smaller image of a bigger object.","I did not experience any issues.","<p>Correct!</p>","null","","","","","","",""
"","null","html-keyboard-response","315","2.0.0","268572","px12rofgcow","bigger","rhino","To see if participants would incorrectly select the smaller image of a bigger object.","I did not experience any issues.","<div style=""font-size:60px;"">+</div>","null","","","","","","",""
"","368","image-keyboard-response","316","2.0.0","268943","px12rofgcow","bigger","rhino","To see if participants would incorrectly select the smaller image of a bigger object.","I did not experience any issues.","stimuli/9-Inongruent.jpg","m","","","","","right","m","true"
"","null","html-keyboard-response","317","2.0.0","269853","px12rofgcow","bigger","rhino","To see if participants would incorrectly select the smaller image of a bigger object.","I did not experience any issues.","<p>Correct!</p>","null","","","","","","",""
"","null","html-keyboard-response","318","2.0.0","270859","px12rofgcow","bigger","rhino","To see if participants would incorrectly select the smaller image of a bigger object.","I did not experience any issues.","<div style=""font-size:60px;"">+</div>","null","","","","","","",""
"","284","image-keyboard-response","319","2.0.0","271146","px12rofgcow","bigger","rhino","To see if participants would incorrectly select the smaller image of a bigger object.","I did not experience any issues.","stimuli/35-Congruent.jpg","z","","","","","left","z","true"
"","null","html-keyboard-response","320","2.0.0","272060","px12rofgcow","bigger","rhino","To see if participants would incorrectly select the smaller image of a bigger object.","I did not experience any issues.","<p>Correct!</p>","null","","","","","","",""
"","null","html-keyboard-response","321","2.0.0","273077","px12rofgcow","bigger","rhino","To see if participants would incorrectly select the smaller image of a bigger object.","I did not experience any issues.","<div style=""font-size:60px;"">+</div>","null","","","","","","",""
"","273","image-keyboard-response","322","2.0.0","273352","px12rofgcow","bigger","rhino","To see if participants would incorrectly select the smaller image of a bigger object.","I did not experience any issues.","stimuli/11-Inongruent.jpg","m","","","","","right","m","true"
"","null","html-keyboard-response","323","2.0.0","274254","px12rofgcow","bigger","rhino","To see if participants would incorrectly select the smaller image of a bigger object.","I did not experience any issues.","<p>Correct!</p>","null","","","","","","",""
"","null","html-keyboard-response","324","2.0.0","275256","px12rofgcow","bigger","rhino","To see if participants would incorrectly select the smaller image of a bigger object.","I did not experience any issues.","<div style=""font-size:60px;"">+</div>","null","","","","","","",""
"","351","image-keyboard-response","325","2.0.0","275611","px12rofgcow","bigger","rhino","To see if participants would incorrectly select the smaller image of a bigger object.","I did not experience any issues.","stimuli/25-Inongruent.jpg","m","","","","","right","m","true"
"","null","html-keyboard-response","326","2.0.0","276518","px12rofgcow","bigger","rhino","To see if participants would incorrectly select the smaller image of a bigger object.","I did not experience any issues.","<p>Correct!</p>","null","","","","","","",""
"","null","html-keyboard-response","327","2.0.0","277524","px12rofgcow","bigger","rhino","To see if participants would incorrectly select the smaller image of a bigger object.","I did not experience any issues.","<div style=""font-size:60px;"">+</div>","null","","","","","","",""
"","322","image-keyboard-response","328","2.0.0","277848","px12rofgcow","bigger","rhino","To see if participants would incorrectly select the smaller image of a bigger object.","I did not experience any issues.","stimuli/14-Inongruent.jpg","m","","","","","right","m","true"
"","null","html-keyboard-response","329","2.0.0","278761","px12rofgcow","bigger","rhino","To see if participants would incorrectly select the smaller image of a bigger object.","I did not experience any issues.","<p>Correct!</p>","null","","","","","","",""
"","null","html-keyboard-response","330","2.0.0","279770","px12rofgcow","bigger","rhino","To see if participants would incorrectly select the smaller image of a bigger object.","I did not experience any issues.","<div style=""font-size:60px;"">+</div>","null","","","","","","",""
"","360","image-keyboard-response","331","2.0.0","280133","px12rofgcow","bigger","rhino","To see if participants would incorrectly select the smaller image of a bigger object.","I did not experience any issues.","stimuli/22-Inongruent.jpg","m","","","","","right","m","true"
"","null","html-keyboard-response","332","2.0.0","281037","px12rofgcow","bigger","rhino","To see if participants would incorrectly select the smaller image of a bigger object.","I did not experience any issues.","<p>Correct!</p>","null","","","","","","",""
"","null","html-keyboard-response","333","2.0.0","282055","px12rofgcow","bigger","rhino","To see if participants would incorrectly select the smaller image of a bigger object.","I did not experience any issues.","<div style=""font-size:60px;"">+</div>","null","","","","","","",""
"","333","image-keyboard-response","334","2.0.0","282390","px12rofgcow","bigger","rhino","To see if participants would incorrectly select the smaller image of a bigger object.","I did not experience any issues.","stimuli/7-Inongruent.jpg","m","","","","","right","m","true"
"","null","html-keyboard-response","335","2.0.0","283305","px12rofgcow","bigger","rhino","To see if participants would incorrectly select the smaller image of a bigger object.","I did not experience any issues.","<p>Correct!</p>","null","","","","","","",""
"","null","html-keyboard-response","336","2.0.0","284314","px12rofgcow","bigger","rhino","To see if participants would incorrectly select the smaller image of a bigger object.","I did not experience any issues.","<div style=""font-size:60px;"">+</div>","null","","","","","","",""
"","294","image-keyboard-response","337","2.0.0","284610","px12rofgcow","bigger","rhino","To see if participants would incorrectly select the smaller image of a bigger object.","I did not experience any issues.","stimuli/28-Congruent.jpg","z","","","","","left","z","true"
"","null","html-keyboard-response","338","2.0.0","285515","px12rofgcow","bigger","rhino","To see if participants would incorrectly select the smaller image of a bigger object.","I did not experience any issues.","<p>Correct!</p>","null","","","","","","",""
"","null","html-keyboard-response","339","2.0.0","286530","px12rofgcow","bigger","rhino","To see if participants would incorrectly select the smaller image of a bigger object.","I did not experience any issues.","<div style=""font-size:60px;"">+</div>","null","","","","","","",""
"","355","image-keyboard-response","340","2.0.0","286888","px12rofgcow","bigger","rhino","To see if participants would incorrectly select the smaller image of a bigger object.","I did not experience any issues.","stimuli/13-Inongruent.jpg","m","","","","","right","m","true"
"","null","html-keyboard-response","341","2.0.0","287795","px12rofgcow","bigger","rhino","To see if participants would incorrectly select the smaller image of a bigger object.","I did not experience any issues.","<p>Correct!</p>","null","","","","","","",""
"","null","html-keyboard-response","342","2.0.0","288801","px12rofgcow","bigger","rhino","To see if participants would incorrectly select the smaller image of a bigger object.","I did not experience any issues.","<div style=""font-size:60px;"">+</div>","null","","","","","","",""
"","329","image-keyboard-response","343","2.0.0","289132","px12rofgcow","bigger","rhino","To see if participants would incorrectly select the smaller image of a bigger object.","I did not experience any issues.","stimuli/30-Congruent.jpg","z","","","","","left","z","true"
"","null","html-keyboard-response","344","2.0.0","290036","px12rofgcow","bigger","rhino","To see if participants would incorrectly select the smaller image of a bigger object.","I did not experience any issues.","<p>Correct!</p>","null","","","","","","",""
"","null","html-keyboard-response","345","2.0.0","291047","px12rofgcow","bigger","rhino","To see if participants would incorrectly select the smaller image of a bigger object.","I did not experience any issues.","<div style=""font-size:60px;"">+</div>","null","","","","","","",""
"","349","image-keyboard-response","346","2.0.0","291399","px12rofgcow","bigger","rhino","To see if participants would incorrectly select the smaller image of a bigger object.","I did not experience any issues.","stimuli/5-Congruent.jpg","z","","","","","left","z","true"
"","null","html-keyboard-response","347","2.0.0","292315","px12rofgcow","bigger","rhino","To see if participants would incorrectly select the smaller image of a bigger object.","I did not experience any issues.","<p>Correct!</p>","null","","","","","","",""
"","null","html-keyboard-response","348","2.0.0","293325","px12rofgcow","bigger","rhino","To see if participants would incorrectly select the smaller image of a bigger object.","I did not experience any issues.","<div style=""font-size:60px;"">+</div>","null","","","","","","",""
"","357","image-keyboard-response","349","2.0.0","293683","px12rofgcow","bigger","rhino","To see if participants would incorrectly select the smaller image of a bigger object.","I did not experience any issues.","stimuli/22-Inongruent.jpg","m","","","","","right","m","true"
"","null","html-keyboard-response","350","2.0.0","294600","px12rofgcow","bigger","rhino","To see if participants would incorrectly select the smaller image of a bigger object.","I did not experience any issues.","<p>Correct!</p>","null","","","","","","",""
"","null","html-keyboard-response","351","2.0.0","295610","px12rofgcow","bigger","rhino","To see if participants would incorrectly select the smaller image of a bigger object.","I did not experience any issues.","<div style=""font-size:60px;"">+</div>","null","","","","","","",""
"","361","image-keyboard-response","352","2.0.0","295974","px12rofgcow","bigger","rhino","To see if participants would incorrectly select the smaller image of a bigger object.","I did not experience any issues.","stimuli/27-Inongruent.jpg","m","","","","","right","m","true"
"","null","html-keyboard-response","353","2.0.0","296886","px12rofgcow","bigger","rhino","To see if participants would incorrectly select the smaller image of a bigger object.","I did not experience any issues.","<p>Correct!</p>","null","","","","","","",""
"","null","html-keyboard-response","354","2.0.0","297888","px12rofgcow","bigger","rhino","To see if participants would incorrectly select the smaller image of a bigger object.","I did not experience any issues.","<div style=""font-size:60px;"">+</div>","null","","","","","","",""
"","296","image-keyboard-response","355","2.0.0","298187","px12rofgcow","bigger","rhino","To see if participants would incorrectly select the smaller image of a bigger object.","I did not experience any issues.","stimuli/6-Congruent.jpg","z","","","","","left","z","true"
"","null","html-keyboard-response","356","2.0.0","299094","px12rofgcow","bigger","rhino","To see if participants would incorrectly select the smaller image of a bigger object.","I did not experience any issues.","<p>Correct!</p>","null","","","","","","",""
"","null","html-keyboard-response","357","2.0.0","300111","px12rofgcow","bigger","rhino","To see if participants would incorrectly select the smaller image of a bigger object.","I did not experience any issues.","<div style=""font-size:60px;"">+</div>","null","","","","","","",""
"","355","image-keyboard-response","358","2.0.0","300469","px12rofgcow","bigger","rhino","To see if participants would incorrectly select the smaller image of a bigger object.","I did not experience any issues.","stimuli/31-Inongruent.jpg","m","","","","","right","m","true"
"","null","html-keyboard-response","359","2.0.0","301384","px12rofgcow","bigger","rhino","To see if participants would incorrectly select the smaller image of a bigger object.","I did not experience any issues.","<p>Correct!</p>","null","","","","","","",""
"","null","html-keyboard-response","360","2.0.0","302401","px12rofgcow","bigger","rhino","To see if participants would incorrectly select the smaller image of a bigger object.","I did not experience any issues.","<div style=""font-size:60px;"">+</div>","null","","","","","","",""
"","350","image-keyboard-response","361","2.0.0","302753","px12rofgcow","bigger","rhino","To see if participants would incorrectly select the smaller image of a bigger object.","I did not experience any issues.","stimuli/10-Congruent.jpg","z","","","","","left","z","true"
"","null","html-keyboard-response","362","2.0.0","303662","px12rofgcow","bigger","rhino","To see if participants would incorrectly select the smaller image of a bigger object.","I did not experience any issues.","<p>Correct!</p>","null","","","","","","",""
"","null","html-keyboard-response","363","2.0.0","304664","px12rofgcow","bigger","rhino","To see if participants would incorrectly select the smaller image of a bigger object.","I did not experience any issues.","<div style=""font-size:60px;"">+</div>","null","","","","","","",""
"","330","image-keyboard-response","364","2.0.0","304996","px12rofgcow","bigger","rhino","To see if participants would incorrectly select the smaller image of a bigger object.","I did not experience any issues.","stimuli/29-Inongruent.jpg","m","","","","","right","m","true"
"","null","html-keyboard-response","365","2.0.0","305902","px12rofgcow","bigger","rhino","To see if participants would incorrectly select the smaller image of a bigger object.","I did not experience any issues.","<p>Correct!</p>","null","","","","","","",""
