"success","rt","trial_type","trial_index","plugin_version","time_elapsed","random_id","condition","participant","participant_thoughts","participant_difficulties","stimulus","response","timeout","failed_images","failed_audio","failed_video","correct_response","correct_response_key","correct"
"true","2153","fullscreen","0","null","3156","py5b20xboc1","bigger","falcon","Attention span","No","","","","","","","","",""
"","2382","html-keyboard-response","1","2.0.0","5539","py5b20xboc1","bigger","falcon","Attention span","No","Welcome to the Size Stroop experiment. Press any key to begin."," ","","","","","","",""
"","null","html-keyboard-response","2","2.0.0","6543","py5b20xboc1","bigger","falcon","Attention span","No","This trial will be in fullscreen mode.","null","","","","","","",""
"","8026","survey-text","3","2.0.0","14574","py5b20xboc1","bigger","falcon","Attention span","No","","{""participant_id"":""falcon""}","","","","","","",""
"","31528","html-keyboard-response","4","2.0.0","46103","py5b20xboc1","bigger","falcon","Attention span","No","<p>In this experiment, two images will appear on the screen. Identify the <strong>larger</strong> images.</p>
              <p>If the image on the left is larger, press ""z"". If the image on the right is larger, press ""m"".</p>
              <p>Press any key to begin.</p>"," ","","","","","","",""
"true","","preload","5","2.0.0","46357","py5b20xboc1","bigger","falcon","Attention span","No","","","false","[]","[]","[]","","",""
"","null","html-keyboard-response","6","2.0.0","47359","py5b20xboc1","bigger","falcon","Attention span","No","<div style=""font-size:60px;"">+</div>","null","","","","","","",""
"","6141","image-keyboard-response","7","2.0.0","53504","py5b20xboc1","bigger","falcon","Attention span","No","stimuli/18-Congruent.jpg","z","","","","","left","z","true"
"","null","html-keyboard-response","8","2.0.0","54408","py5b20xboc1","bigger","falcon","Attention span","No","<p>Correct!</p>","null","","","","","","",""
"","null","html-keyboard-response","9","2.0.0","55411","py5b20xboc1","bigger","falcon","Attention span","No","<div style=""font-size:60px;"">+</div>","null","","","","","","",""
"","1444","image-keyboard-response","10","2.0.0","56857","py5b20xboc1","bigger","falcon","Attention span","No","stimuli/4-Congruent.jpg","z","","","","","left","z","true"
"","null","html-keyboard-response","11","2.0.0","57759","py5b20xboc1","bigger","falcon","Attention span","No","<p>Correct!</p>","null","","","","","","",""
"","null","html-keyboard-response","12","2.0.0","58763","py5b20xboc1","bigger","falcon","Attention span","No","<div style=""font-size:60px;"">+</div>","null","","","","","","",""
"","913","image-keyboard-response","13","2.0.0","59678","py5b20xboc1","bigger","falcon","Attention span","No","stimuli/28-Inongruent.jpg","m","","","","","right","m","true"
"","null","html-keyboard-response","14","2.0.0","60581","py5b20xboc1","bigger","falcon","Attention span","No","<p>Correct!</p>","null","","","","","","",""
"","null","html-keyboard-response","15","2.0.0","61584","py5b20xboc1","bigger","falcon","Attention span","No","<div style=""font-size:60px;"">+</div>","null","","","","","","",""
"","1170","image-keyboard-response","16","2.0.0","62756","py5b20xboc1","bigger","falcon","Attention span","No","stimuli/31-Inongruent.jpg","m","","","","","right","m","true"
"","null","html-keyboard-response","17","2.0.0","63660","py5b20xboc1","bigger","falcon","Attention span","No","<p>Correct!</p>","null","","","","","","",""
"","null","html-keyboard-response","18","2.0.0","64662","py5b20xboc1","bigger","falcon","Attention span","No","<div style=""font-size:60px;"">+</div>","null","","","","","","",""
"","781","image-keyboard-response","19","2.0.0","65446","py5b20xboc1","bigger","falcon","Attention span","No","stimuli/4-Inongruent.jpg","m","","","","","right","m","true"
"","null","html-keyboard-response","20","2.0.0","66348","py5b20xboc1","bigger","falcon","Attention span","No","<p>Correct!</p>","null","","","","","","",""
"","null","html-keyboard-response","21","2.0.0","67352","py5b20xboc1","bigger","falcon","Attention span","No","<div style=""font-size:60px;"">+</div>","null","","","","","","",""
"","690","image-keyboard-response","22","2.0.0","68044","py5b20xboc1","bigger","falcon","Attention span","No","stimuli/19-Inongruent.jpg","m","","","","","right","m","true"
"","null","html-keyboard-response","23","2.0.0","68947","py5b20xboc1","bigger","falcon","Attention span","No","<p>Correct!</p>","null","","","","","","",""
"","null","html-keyboard-response","24","2.0.0","69950","py5b20xboc1","bigger","falcon","Attention span","No","<div style=""font-size:60px;"">+</div>","null","","","","","","",""
"","1026","image-keyboard-response","25","2.0.0","70979","py5b20xboc1","bigger","falcon","Attention span","No","stimuli/12-Congruent.jpg","z","","","","","left","z","true"
"","null","html-keyboard-response","26","2.0.0","71882","py5b20xboc1","bigger","falcon","Attention span","No","<p>Correct!</p>","null","","","","","","",""
"","null","html-keyboard-response","27","2.0.0","72885","py5b20xboc1","bigger","falcon","Attention span","No","<div style=""font-size:60px;"">+</div>","null","","","","","","",""
"","698","image-keyboard-response","28","2.0.0","73586","py5b20xboc1","bigger","falcon","Attention span","No","stimuli/8-Congruent.jpg","z","","","","","left","z","true"
"","null","html-keyboard-response","29","2.0.0","74489","py5b20xboc1","bigger","falcon","Attention span","No","<p>Correct!</p>","null","","","","","","",""
"","null","html-keyboard-response","30","2.0.0","75492","py5b20xboc1","bigger","falcon","Attention span","No","<div style=""font-size:60px;"">+</div>","null","","","","","","",""
"","540","image-keyboard-response","31","2.0.0","76035","py5b20xboc1","bigger","falcon","Attention span","No","stimuli/13-Congruent.jpg","z","","","","","left","z","true"
"","null","html-keyboard-response","32","2.0.0","76937","py5b20xboc1","bigger","falcon","Attention span","No","<p>Correct!</p>","null","","","","","","",""
"","null","html-keyboard-response","33","2.0.0","77940","py5b20xboc1","bigger","falcon","Attention span","No","<div style=""font-size:60px;"">+</div>","null","","","","","","",""
"","536","image-keyboard-response","34","2.0.0","78478","py5b20xboc1","bigger","falcon","Attention span","No","stimuli/26-Inongruent.jpg","m","","","","","right","m","true"
"","null","html-keyboard-response","35","2.0.0","79381","py5b20xboc1","bigger","falcon","Attention span","No","<p>Correct!</p>","null","","","","","","",""
"","null","html-keyboard-response","36","2.0.0","80384","py5b20xboc1","bigger","falcon","Attention span","No","<div style=""font-size:60px;"">+</div>","null","","","","","","",""
"","567","image-keyboard-response","37","2.0.0","80953","py5b20xboc1","bigger","falcon","Attention span","No","stimuli/12-Congruent.jpg","z","","","","","left","z","true"
"","null","html-keyboard-response","38","2.0.0","81856","py5b20xboc1","bigger","falcon","Attention span","No","<p>Correct!</p>","null","","","","","","",""
"","null","html-keyboard-response","39","2.0.0","82859","py5b20xboc1","bigger","falcon","Attention span","No","<div style=""font-size:60px;"">+</div>","null","","","","","","",""
"","531","image-keyboard-response","40","2.0.0","83392","py5b20xboc1","bigger","falcon","Attention span","No","stimuli/27-Congruent.jpg","z","","","","","left","z","true"
"","null","html-keyboard-response","41","2.0.0","84295","py5b20xboc1","bigger","falcon","Attention span","No","<p>Correct!</p>","null","","","","","","",""
"","null","html-keyboard-response","42","2.0.0","85297","py5b20xboc1","bigger","falcon","Attention span","No","<div style=""font-size:60px;"">+</div>","null","","","","","","",""
"","527","image-keyboard-response","43","2.0.0","85826","py5b20xboc1","bigger","falcon","Attention span","No","stimuli/32-Inongruent.jpg","m","","","","","right","m","true"
"","null","html-keyboard-response","44","2.0.0","86729","py5b20xboc1","bigger","falcon","Attention span","No","<p>Correct!</p>","null","","","","","","",""
"","null","html-keyboard-response","45","2.0.0","87732","py5b20xboc1","bigger","falcon","Attention span","No","<div style=""font-size:60px;"">+</div>","null","","","","","","",""
"","453","image-keyboard-response","46","2.0.0","88187","py5b20xboc1","bigger","falcon","Attention span","No","stimuli/30-Congruent.jpg","z","","","","","left","z","true"
"","null","html-keyboard-response","47","2.0.0","89090","py5b20xboc1","bigger","falcon","Attention span","No","<p>Correct!</p>","null","","","","","","",""
"","null","html-keyboard-response","48","2.0.0","90093","py5b20xboc1","bigger","falcon","Attention span","No","<div style=""font-size:60px;"">+</div>","null","","","","","","",""
"","388","image-keyboard-response","49","2.0.0","90484","py5b20xboc1","bigger","falcon","Attention span","No","stimuli/13-Inongruent.jpg","m","","","","","right","m","true"
"","null","html-keyboard-response","50","2.0.0","91387","py5b20xboc1","bigger","falcon","Attention span","No","<p>Correct!</p>","null","","","","","","",""
"","null","html-keyboard-response","51","2.0.0","92390","py5b20xboc1","bigger","falcon","Attention span","No","<div style=""font-size:60px;"">+</div>","null","","","","","","",""
"","436","image-keyboard-response","52","2.0.0","92828","py5b20xboc1","bigger","falcon","Attention span","No","stimuli/30-Inongruent.jpg","m","","","","","right","m","true"
"","null","html-keyboard-response","53","2.0.0","93730","py5b20xboc1","bigger","falcon","Attention span","No","<p>Correct!</p>","null","","","","","","",""
"","null","html-keyboard-response","54","2.0.0","94732","py5b20xboc1","bigger","falcon","Attention span","No","<div style=""font-size:60px;"">+</div>","null","","","","","","",""
"","395","image-keyboard-response","55","2.0.0","95130","py5b20xboc1","bigger","falcon","Attention span","No","stimuli/18-Inongruent.jpg","m","","","","","right","m","true"
"","null","html-keyboard-response","56","2.0.0","96033","py5b20xboc1","bigger","falcon","Attention span","No","<p>Correct!</p>","null","","","","","","",""
"","null","html-keyboard-response","57","2.0.0","97036","py5b20xboc1","bigger","falcon","Attention span","No","<div style=""font-size:60px;"">+</div>","null","","","","","","",""
"","413","image-keyboard-response","58","2.0.0","97451","py5b20xboc1","bigger","falcon","Attention span","No","stimuli/5-Inongruent.jpg","m","","","","","right","m","true"
"","null","html-keyboard-response","59","2.0.0","98353","py5b20xboc1","bigger","falcon","Attention span","No","<p>Correct!</p>","null","","","","","","",""
"","null","html-keyboard-response","60","2.0.0","99356","py5b20xboc1","bigger","falcon","Attention span","No","<div style=""font-size:60px;"">+</div>","null","","","","","","",""
"","485","image-keyboard-response","61","2.0.0","99843","py5b20xboc1","bigger","falcon","Attention span","No","stimuli/36-Inongruent.jpg","m","","","","","right","m","true"
"","null","html-keyboard-response","62","2.0.0","100745","py5b20xboc1","bigger","falcon","Attention span","No","<p>Correct!</p>","null","","","","","","",""
"","null","html-keyboard-response","63","2.0.0","101748","py5b20xboc1","bigger","falcon","Attention span","No","<div style=""font-size:60px;"">+</div>","null","","","","","","",""
"","491","image-keyboard-response","64","2.0.0","102242","py5b20xboc1","bigger","falcon","Attention span","No","stimuli/27-Congruent.jpg","z","","","","","left","z","true"
"","null","html-keyboard-response","65","2.0.0","103144","py5b20xboc1","bigger","falcon","Attention span","No","<p>Correct!</p>","null","","","","","","",""
"","null","html-keyboard-response","66","2.0.0","104147","py5b20xboc1","bigger","falcon","Attention span","No","<div style=""font-size:60px;"">+</div>","null","","","","","","",""
"","440","image-keyboard-response","67","2.0.0","104589","py5b20xboc1","bigger","falcon","Attention span","No","stimuli/19-Inongruent.jpg","m","","","","","right","m","true"
"","null","html-keyboard-response","68","2.0.0","105491","py5b20xboc1","bigger","falcon","Attention span","No","<p>Correct!</p>","null","","","","","","",""
"","null","html-keyboard-response","69","2.0.0","106494","py5b20xboc1","bigger","falcon","Attention span","No","<div style=""font-size:60px;"">+</div>","null","","","","","","",""
"","586","image-keyboard-response","70","2.0.0","107082","py5b20xboc1","bigger","falcon","Attention span","No","stimuli/30-Inongruent.jpg","m","","","","","right","m","true"
"","null","html-keyboard-response","71","2.0.0","107984","py5b20xboc1","bigger","falcon","Attention span","No","<p>Correct!</p>","null","","","","","","",""
"","null","html-keyboard-response","72","2.0.0","108987","py5b20xboc1","bigger","falcon","Attention span","No","<div style=""font-size:60px;"">+</div>","null","","","","","","",""
"","533","image-keyboard-response","73","2.0.0","109523","py5b20xboc1","bigger","falcon","Attention span","No","stimuli/5-Congruent.jpg","z","","","","","left","z","true"
"","null","html-keyboard-response","74","2.0.0","110426","py5b20xboc1","bigger","falcon","Attention span","No","<p>Correct!</p>","null","","","","","","",""
"","null","html-keyboard-response","75","2.0.0","111430","py5b20xboc1","bigger","falcon","Attention span","No","<div style=""font-size:60px;"">+</div>","null","","","","","","",""
"","480","image-keyboard-response","76","2.0.0","111912","py5b20xboc1","bigger","falcon","Attention span","No","stimuli/29-Inongruent.jpg","m","","","","","right","m","true"
"","null","html-keyboard-response","77","2.0.0","112815","py5b20xboc1","bigger","falcon","Attention span","No","<p>Correct!</p>","null","","","","","","",""
"","null","html-keyboard-response","78","2.0.0","113818","py5b20xboc1","bigger","falcon","Attention span","No","<div style=""font-size:60px;"">+</div>","null","","","","","","",""
"","777","image-keyboard-response","79","2.0.0","114597","py5b20xboc1","bigger","falcon","Attention span","No","stimuli/25-Inongruent.jpg","m","","","","","right","m","true"
"","null","html-keyboard-response","80","2.0.0","115500","py5b20xboc1","bigger","falcon","Attention span","No","<p>Correct!</p>","null","","","","","","",""
"","null","html-keyboard-response","81","2.0.0","116503","py5b20xboc1","bigger","falcon","Attention span","No","<div style=""font-size:60px;"">+</div>","null","","","","","","",""
"","496","image-keyboard-response","82","2.0.0","117000","py5b20xboc1","bigger","falcon","Attention span","No","stimuli/8-Inongruent.jpg","m","","","","","right","m","true"
"","null","html-keyboard-response","83","2.0.0","117903","py5b20xboc1","bigger","falcon","Attention span","No","<p>Correct!</p>","null","","","","","","",""
"","null","html-keyboard-response","84","2.0.0","118906","py5b20xboc1","bigger","falcon","Attention span","No","<div style=""font-size:60px;"">+</div>","null","","","","","","",""
"","1319","image-keyboard-response","85","2.0.0","120227","py5b20xboc1","bigger","falcon","Attention span","No","stimuli/6-Congruent.jpg","z","","","","","left","z","true"
"","null","html-keyboard-response","86","2.0.0","121130","py5b20xboc1","bigger","falcon","Attention span","No","<p>Correct!</p>","null","","","","","","",""
"","null","html-keyboard-response","87","2.0.0","122132","py5b20xboc1","bigger","falcon","Attention span","No","<div style=""font-size:60px;"">+</div>","null","","","","","","",""
"","491","image-keyboard-response","88","2.0.0","122625","py5b20xboc1","bigger","falcon","Attention span","No","stimuli/34-Inongruent.jpg","m","","","","","right","m","true"
"","null","html-keyboard-response","89","2.0.0","123528","py5b20xboc1","bigger","falcon","Attention span","No","<p>Correct!</p>","null","","","","","","",""
"","null","html-keyboard-response","90","2.0.0","124531","py5b20xboc1","bigger","falcon","Attention span","No","<div style=""font-size:60px;"">+</div>","null","","","","","","",""
"","566","image-keyboard-response","91","2.0.0","125099","py5b20xboc1","bigger","falcon","Attention span","No","stimuli/21-Congruent.jpg","z","","","","","left","z","true"
"","null","html-keyboard-response","92","2.0.0","126001","py5b20xboc1","bigger","falcon","Attention span","No","<p>Correct!</p>","null","","","","","","",""
"","null","html-keyboard-response","93","2.0.0","127003","py5b20xboc1","bigger","falcon","Attention span","No","<div style=""font-size:60px;"">+</div>","null","","","","","","",""
"","550","image-keyboard-response","94","2.0.0","127555","py5b20xboc1","bigger","falcon","Attention span","No","stimuli/9-Inongruent.jpg","m","","","","","right","m","true"
"","null","html-keyboard-response","95","2.0.0","128457","py5b20xboc1","bigger","falcon","Attention span","No","<p>Correct!</p>","null","","","","","","",""
"","null","html-keyboard-response","96","2.0.0","129460","py5b20xboc1","bigger","falcon","Attention span","No","<div style=""font-size:60px;"">+</div>","null","","","","","","",""
"","587","image-keyboard-response","97","2.0.0","130050","py5b20xboc1","bigger","falcon","Attention span","No","stimuli/16-Inongruent.jpg","m","","","","","right","m","true"
"","null","html-keyboard-response","98","2.0.0","130952","py5b20xboc1","bigger","falcon","Attention span","No","<p>Correct!</p>","null","","","","","","",""
"","null","html-keyboard-response","99","2.0.0","131955","py5b20xboc1","bigger","falcon","Attention span","No","<div style=""font-size:60px;"">+</div>","null","","","","","","",""
"","587","image-keyboard-response","100","2.0.0","132544","py5b20xboc1","bigger","falcon","Attention span","No","stimuli/11-Congruent.jpg","z","","","","","left","z","true"
"","null","html-keyboard-response","101","2.0.0","133446","py5b20xboc1","bigger","falcon","Attention span","No","<p>Correct!</p>","null","","","","","","",""
"","null","html-keyboard-response","102","2.0.0","134449","py5b20xboc1","bigger","falcon","Attention span","No","<div style=""font-size:60px;"">+</div>","null","","","","","","",""
"","435","image-keyboard-response","103","2.0.0","134887","py5b20xboc1","bigger","falcon","Attention span","No","stimuli/1-Inongruent.jpg","m","","","","","right","m","true"
"","null","html-keyboard-response","104","2.0.0","135790","py5b20xboc1","bigger","falcon","Attention span","No","<p>Correct!</p>","null","","","","","","",""
"","null","html-keyboard-response","105","2.0.0","136792","py5b20xboc1","bigger","falcon","Attention span","No","<div style=""font-size:60px;"">+</div>","null","","","","","","",""
"","394","image-keyboard-response","106","2.0.0","137189","py5b20xboc1","bigger","falcon","Attention span","No","stimuli/3-Inongruent.jpg","m","","","","","right","m","true"
"","null","html-keyboard-response","107","2.0.0","138091","py5b20xboc1","bigger","falcon","Attention span","No","<p>Correct!</p>","null","","","","","","",""
"","null","html-keyboard-response","108","2.0.0","139094","py5b20xboc1","bigger","falcon","Attention span","No","<div style=""font-size:60px;"">+</div>","null","","","","","","",""
"","504","image-keyboard-response","109","2.0.0","139600","py5b20xboc1","bigger","falcon","Attention span","No","stimuli/33-Congruent.jpg","z","","","","","left","z","true"
"","null","html-keyboard-response","110","2.0.0","140503","py5b20xboc1","bigger","falcon","Attention span","No","<p>Correct!</p>","null","","","","","","",""
"","null","html-keyboard-response","111","2.0.0","141506","py5b20xboc1","bigger","falcon","Attention span","No","<div style=""font-size:60px;"">+</div>","null","","","","","","",""
"","605","image-keyboard-response","112","2.0.0","142113","py5b20xboc1","bigger","falcon","Attention span","No","stimuli/24-Inongruent.jpg","m","","","","","right","m","true"
"","null","html-keyboard-response","113","2.0.0","143015","py5b20xboc1","bigger","falcon","Attention span","No","<p>Correct!</p>","null","","","","","","",""
"","null","html-keyboard-response","114","2.0.0","144018","py5b20xboc1","bigger","falcon","Attention span","No","<div style=""font-size:60px;"">+</div>","null","","","","","","",""
"","497","image-keyboard-response","115","2.0.0","144517","py5b20xboc1","bigger","falcon","Attention span","No","stimuli/28-Congruent.jpg","z","","","","","left","z","true"
"","null","html-keyboard-response","116","2.0.0","145420","py5b20xboc1","bigger","falcon","Attention span","No","<p>Correct!</p>","null","","","","","","",""
"","null","html-keyboard-response","117","2.0.0","146423","py5b20xboc1","bigger","falcon","Attention span","No","<div style=""font-size:60px;"">+</div>","null","","","","","","",""
"","449","image-keyboard-response","118","2.0.0","146874","py5b20xboc1","bigger","falcon","Attention span","No","stimuli/34-Congruent.jpg","z","","","","","left","z","true"
"","null","html-keyboard-response","119","2.0.0","147777","py5b20xboc1","bigger","falcon","Attention span","No","<p>Correct!</p>","null","","","","","","",""
"","null","html-keyboard-response","120","2.0.0","148780","py5b20xboc1","bigger","falcon","Attention span","No","<div style=""font-size:60px;"">+</div>","null","","","","","","",""
"","576","image-keyboard-response","121","2.0.0","149358","py5b20xboc1","bigger","falcon","Attention span","No","stimuli/25-Inongruent.jpg","m","","","","","right","m","true"
"","null","html-keyboard-response","122","2.0.0","150260","py5b20xboc1","bigger","falcon","Attention span","No","<p>Correct!</p>","null","","","","","","",""
"","null","html-keyboard-response","123","2.0.0","151264","py5b20xboc1","bigger","falcon","Attention span","No","<div style=""font-size:60px;"">+</div>","null","","","","","","",""
"","415","image-keyboard-response","124","2.0.0","151681","py5b20xboc1","bigger","falcon","Attention span","No","stimuli/33-Inongruent.jpg","m","","","","","right","m","true"
"","null","html-keyboard-response","125","2.0.0","152583","py5b20xboc1","bigger","falcon","Attention span","No","<p>Correct!</p>","null","","","","","","",""
"","null","html-keyboard-response","126","2.0.0","153586","py5b20xboc1","bigger","falcon","Attention span","No","<div style=""font-size:60px;"">+</div>","null","","","","","","",""
"","707","image-keyboard-response","127","2.0.0","154295","py5b20xboc1","bigger","falcon","Attention span","No","stimuli/15-Inongruent.jpg","m","","","","","right","m","true"
"","null","html-keyboard-response","128","2.0.0","155197","py5b20xboc1","bigger","falcon","Attention span","No","<p>Correct!</p>","null","","","","","","",""
"","null","html-keyboard-response","129","2.0.0","156200","py5b20xboc1","bigger","falcon","Attention span","No","<div style=""font-size:60px;"">+</div>","null","","","","","","",""
"","404","image-keyboard-response","130","2.0.0","156606","py5b20xboc1","bigger","falcon","Attention span","No","stimuli/6-Inongruent.jpg","m","","","","","right","m","true"
"","null","html-keyboard-response","131","2.0.0","157509","py5b20xboc1","bigger","falcon","Attention span","No","<p>Correct!</p>","null","","","","","","",""
"","null","html-keyboard-response","132","2.0.0","158512","py5b20xboc1","bigger","falcon","Attention span","No","<div style=""font-size:60px;"">+</div>","null","","","","","","",""
"","400","image-keyboard-response","133","2.0.0","158914","py5b20xboc1","bigger","falcon","Attention span","No","stimuli/21-Congruent.jpg","z","","","","","left","z","true"
"","null","html-keyboard-response","134","2.0.0","159817","py5b20xboc1","bigger","falcon","Attention span","No","<p>Correct!</p>","null","","","","","","",""
"","null","html-keyboard-response","135","2.0.0","160820","py5b20xboc1","bigger","falcon","Attention span","No","<div style=""font-size:60px;"">+</div>","null","","","","","","",""
"","504","image-keyboard-response","136","2.0.0","161326","py5b20xboc1","bigger","falcon","Attention span","No","stimuli/2-Congruent.jpg","z","","","","","left","z","true"
"","null","html-keyboard-response","137","2.0.0","162228","py5b20xboc1","bigger","falcon","Attention span","No","<p>Correct!</p>","null","","","","","","",""
"","null","html-keyboard-response","138","2.0.0","163231","py5b20xboc1","bigger","falcon","Attention span","No","<div style=""font-size:60px;"">+</div>","null","","","","","","",""
"","459","image-keyboard-response","139","2.0.0","163692","py5b20xboc1","bigger","falcon","Attention span","No","stimuli/17-Inongruent.jpg","m","","","","","right","m","true"
"","null","html-keyboard-response","140","2.0.0","164595","py5b20xboc1","bigger","falcon","Attention span","No","<p>Correct!</p>","null","","","","","","",""
"","null","html-keyboard-response","141","2.0.0","165598","py5b20xboc1","bigger","falcon","Attention span","No","<div style=""font-size:60px;"">+</div>","null","","","","","","",""
"","419","image-keyboard-response","142","2.0.0","166019","py5b20xboc1","bigger","falcon","Attention span","No","stimuli/27-Inongruent.jpg","m","","","","","right","m","true"
"","null","html-keyboard-response","143","2.0.0","166922","py5b20xboc1","bigger","falcon","Attention span","No","<p>Correct!</p>","null","","","","","","",""
"","null","html-keyboard-response","144","2.0.0","167925","py5b20xboc1","bigger","falcon","Attention span","No","<div style=""font-size:60px;"">+</div>","null","","","","","","",""
"","440","image-keyboard-response","145","2.0.0","168367","py5b20xboc1","bigger","falcon","Attention span","No","stimuli/3-Congruent.jpg","z","","","","","left","z","true"
"","null","html-keyboard-response","146","2.0.0","169270","py5b20xboc1","bigger","falcon","Attention span","No","<p>Correct!</p>","null","","","","","","",""
"","null","html-keyboard-response","147","2.0.0","170272","py5b20xboc1","bigger","falcon","Attention span","No","<div style=""font-size:60px;"">+</div>","null","","","","","","",""
"","486","image-keyboard-response","148","2.0.0","170760","py5b20xboc1","bigger","falcon","Attention span","No","stimuli/16-Congruent.jpg","z","","","","","left","z","true"
"","null","html-keyboard-response","149","2.0.0","171664","py5b20xboc1","bigger","falcon","Attention span","No","<p>Correct!</p>","null","","","","","","",""
"","null","html-keyboard-response","150","2.0.0","172666","py5b20xboc1","bigger","falcon","Attention span","No","<div style=""font-size:60px;"">+</div>","null","","","","","","",""
"","358","image-keyboard-response","151","2.0.0","173026","py5b20xboc1","bigger","falcon","Attention span","No","stimuli/7-Inongruent.jpg","m","","","","","right","m","true"
"","null","html-keyboard-response","152","2.0.0","173928","py5b20xboc1","bigger","falcon","Attention span","No","<p>Correct!</p>","null","","","","","","",""
"","null","html-keyboard-response","153","2.0.0","174932","py5b20xboc1","bigger","falcon","Attention span","No","<div style=""font-size:60px;"">+</div>","null","","","","","","",""
"","532","image-keyboard-response","154","2.0.0","175466","py5b20xboc1","bigger","falcon","Attention span","No","stimuli/30-Congruent.jpg","z","","","","","left","z","true"
"","null","html-keyboard-response","155","2.0.0","176368","py5b20xboc1","bigger","falcon","Attention span","No","<p>Correct!</p>","null","","","","","","",""
"","null","html-keyboard-response","156","2.0.0","177372","py5b20xboc1","bigger","falcon","Attention span","No","<div style=""font-size:60px;"">+</div>","null","","","","","","",""
"","400","image-keyboard-response","157","2.0.0","177774","py5b20xboc1","bigger","falcon","Attention span","No","stimuli/15-Congruent.jpg","z","","","","","left","z","true"
"","null","html-keyboard-response","158","2.0.0","178677","py5b20xboc1","bigger","falcon","Attention span","No","<p>Correct!</p>","null","","","","","","",""
"","null","html-keyboard-response","159","2.0.0","179681","py5b20xboc1","bigger","falcon","Attention span","No","<div style=""font-size:60px;"">+</div>","null","","","","","","",""
"","386","image-keyboard-response","160","2.0.0","180069","py5b20xboc1","bigger","falcon","Attention span","No","stimuli/36-Inongruent.jpg","m","","","","","right","m","true"
"","null","html-keyboard-response","161","2.0.0","180972","py5b20xboc1","bigger","falcon","Attention span","No","<p>Correct!</p>","null","","","","","","",""
"","null","html-keyboard-response","162","2.0.0","181975","py5b20xboc1","bigger","falcon","Attention span","No","<div style=""font-size:60px;"">+</div>","null","","","","","","",""
"","403","image-keyboard-response","163","2.0.0","182381","py5b20xboc1","bigger","falcon","Attention span","No","stimuli/2-Inongruent.jpg","m","","","","","right","m","true"
"","null","html-keyboard-response","164","2.0.0","183284","py5b20xboc1","bigger","falcon","Attention span","No","<p>Correct!</p>","null","","","","","","",""
"","null","html-keyboard-response","165","2.0.0","184287","py5b20xboc1","bigger","falcon","Attention span","No","<div style=""font-size:60px;"">+</div>","null","","","","","","",""
"","456","image-keyboard-response","166","2.0.0","184745","py5b20xboc1","bigger","falcon","Attention span","No","stimuli/31-Congruent.jpg","z","","","","","left","z","true"
"","null","html-keyboard-response","167","2.0.0","185648","py5b20xboc1","bigger","falcon","Attention span","No","<p>Correct!</p>","null","","","","","","",""
"","null","html-keyboard-response","168","2.0.0","186651","py5b20xboc1","bigger","falcon","Attention span","No","<div style=""font-size:60px;"">+</div>","null","","","","","","",""
"","560","image-keyboard-response","169","2.0.0","187214","py5b20xboc1","bigger","falcon","Attention span","No","stimuli/7-Congruent.jpg","z","","","","","left","z","true"
"","null","html-keyboard-response","170","2.0.0","188117","py5b20xboc1","bigger","falcon","Attention span","No","<p>Correct!</p>","null","","","","","","",""
"","null","html-keyboard-response","171","2.0.0","189120","py5b20xboc1","bigger","falcon","Attention span","No","<div style=""font-size:60px;"">+</div>","null","","","","","","",""
"","529","image-keyboard-response","172","2.0.0","189651","py5b20xboc1","bigger","falcon","Attention span","No","stimuli/32-Congruent.jpg","z","","","","","left","z","true"
"","null","html-keyboard-response","173","2.0.0","190554","py5b20xboc1","bigger","falcon","Attention span","No","<p>Correct!</p>","null","","","","","","",""
"","null","html-keyboard-response","174","2.0.0","191557","py5b20xboc1","bigger","falcon","Attention span","No","<div style=""font-size:60px;"">+</div>","null","","","","","","",""
"","1076","image-keyboard-response","175","2.0.0","192634","py5b20xboc1","bigger","falcon","Attention span","No","stimuli/36-Congruent.jpg","z","","","","","left","z","true"
"","null","html-keyboard-response","176","2.0.0","193537","py5b20xboc1","bigger","falcon","Attention span","No","<p>Correct!</p>","null","","","","","","",""
"","null","html-keyboard-response","177","2.0.0","194540","py5b20xboc1","bigger","falcon","Attention span","No","<div style=""font-size:60px;"">+</div>","null","","","","","","",""
"","754","image-keyboard-response","178","2.0.0","195296","py5b20xboc1","bigger","falcon","Attention span","No","stimuli/24-Congruent.jpg","z","","","","","left","z","true"
"","null","html-keyboard-response","179","2.0.0","196198","py5b20xboc1","bigger","falcon","Attention span","No","<p>Correct!</p>","null","","","","","","",""
"","null","html-keyboard-response","180","2.0.0","197202","py5b20xboc1","bigger","falcon","Attention span","No","<div style=""font-size:60px;"">+</div>","null","","","","","","",""
"","426","image-keyboard-response","181","2.0.0","197629","py5b20xboc1","bigger","falcon","Attention span","No","stimuli/10-Inongruent.jpg","m","","","","","right","m","true"
"","null","html-keyboard-response","182","2.0.0","198532","py5b20xboc1","bigger","falcon","Attention span","No","<p>Correct!</p>","null","","","","","","",""
"","null","html-keyboard-response","183","2.0.0","199536","py5b20xboc1","bigger","falcon","Attention span","No","<div style=""font-size:60px;"">+</div>","null","","","","","","",""
"","429","image-keyboard-response","184","2.0.0","199966","py5b20xboc1","bigger","falcon","Attention span","No","stimuli/15-Inongruent.jpg","m","","","","","right","m","true"
"","null","html-keyboard-response","185","2.0.0","200869","py5b20xboc1","bigger","falcon","Attention span","No","<p>Correct!</p>","null","","","","","","",""
"","null","html-keyboard-response","186","2.0.0","201872","py5b20xboc1","bigger","falcon","Attention span","No","<div style=""font-size:60px;"">+</div>","null","","","","","","",""
"","505","image-keyboard-response","187","2.0.0","202378","py5b20xboc1","bigger","falcon","Attention span","No","stimuli/12-Inongruent.jpg","m","","","","","right","m","true"
"","null","html-keyboard-response","188","2.0.0","203281","py5b20xboc1","bigger","falcon","Attention span","No","<p>Correct!</p>","null","","","","","","",""
"","null","html-keyboard-response","189","2.0.0","204283","py5b20xboc1","bigger","falcon","Attention span","No","<div style=""font-size:60px;"">+</div>","null","","","","","","",""
"","429","image-keyboard-response","190","2.0.0","204714","py5b20xboc1","bigger","falcon","Attention span","No","stimuli/16-Congruent.jpg","z","","","","","left","z","true"
"","null","html-keyboard-response","191","2.0.0","205617","py5b20xboc1","bigger","falcon","Attention span","No","<p>Correct!</p>","null","","","","","","",""
"","null","html-keyboard-response","192","2.0.0","206620","py5b20xboc1","bigger","falcon","Attention span","No","<div style=""font-size:60px;"">+</div>","null","","","","","","",""
"","444","image-keyboard-response","193","2.0.0","207067","py5b20xboc1","bigger","falcon","Attention span","No","stimuli/11-Congruent.jpg","z","","","","","left","z","true"
"","null","html-keyboard-response","194","2.0.0","207970","py5b20xboc1","bigger","falcon","Attention span","No","<p>Correct!</p>","null","","","","","","",""
"","null","html-keyboard-response","195","2.0.0","208973","py5b20xboc1","bigger","falcon","Attention span","No","<div style=""font-size:60px;"">+</div>","null","","","","","","",""
"","560","image-keyboard-response","196","2.0.0","209535","py5b20xboc1","bigger","falcon","Attention span","No","stimuli/28-Congruent.jpg","z","","","","","left","z","true"
"","null","html-keyboard-response","197","2.0.0","210438","py5b20xboc1","bigger","falcon","Attention span","No","<p>Correct!</p>","null","","","","","","",""
"","null","html-keyboard-response","198","2.0.0","211441","py5b20xboc1","bigger","falcon","Attention span","No","<div style=""font-size:60px;"">+</div>","null","","","","","","",""
"","493","image-keyboard-response","199","2.0.0","211935","py5b20xboc1","bigger","falcon","Attention span","No","stimuli/24-Congruent.jpg","z","","","","","left","z","true"
"","null","html-keyboard-response","200","2.0.0","212837","py5b20xboc1","bigger","falcon","Attention span","No","<p>Correct!</p>","null","","","","","","",""
"","null","html-keyboard-response","201","2.0.0","213840","py5b20xboc1","bigger","falcon","Attention span","No","<div style=""font-size:60px;"">+</div>","null","","","","","","",""
"","423","image-keyboard-response","202","2.0.0","214265","py5b20xboc1","bigger","falcon","Attention span","No","stimuli/20-Congruent.jpg","z","","","","","left","z","true"
"","null","html-keyboard-response","203","2.0.0","215168","py5b20xboc1","bigger","falcon","Attention span","No","<p>Correct!</p>","null","","","","","","",""
"","null","html-keyboard-response","204","2.0.0","216171","py5b20xboc1","bigger","falcon","Attention span","No","<div style=""font-size:60px;"">+</div>","null","","","","","","",""
"","499","image-keyboard-response","205","2.0.0","216671","py5b20xboc1","bigger","falcon","Attention span","No","stimuli/13-Congruent.jpg","z","","","","","left","z","true"
"","null","html-keyboard-response","206","2.0.0","217574","py5b20xboc1","bigger","falcon","Attention span","No","<p>Correct!</p>","null","","","","","","",""
"","null","html-keyboard-response","207","2.0.0","218577","py5b20xboc1","bigger","falcon","Attention span","No","<div style=""font-size:60px;"">+</div>","null","","","","","","",""
"","479","image-keyboard-response","208","2.0.0","219058","py5b20xboc1","bigger","falcon","Attention span","No","stimuli/27-Inongruent.jpg","m","","","","","right","m","true"
"","null","html-keyboard-response","209","2.0.0","219960","py5b20xboc1","bigger","falcon","Attention span","No","<p>Correct!</p>","null","","","","","","",""
"","null","html-keyboard-response","210","2.0.0","220964","py5b20xboc1","bigger","falcon","Attention span","No","<div style=""font-size:60px;"">+</div>","null","","","","","","",""
"","441","image-keyboard-response","211","2.0.0","221407","py5b20xboc1","bigger","falcon","Attention span","No","stimuli/2-Inongruent.jpg","m","","","","","right","m","true"
"","null","html-keyboard-response","212","2.0.0","222310","py5b20xboc1","bigger","falcon","Attention span","No","<p>Correct!</p>","null","","","","","","",""
"","null","html-keyboard-response","213","2.0.0","223313","py5b20xboc1","bigger","falcon","Attention span","No","<div style=""font-size:60px;"">+</div>","null","","","","","","",""
"","476","image-keyboard-response","214","2.0.0","223791","py5b20xboc1","bigger","falcon","Attention span","No","stimuli/21-Inongruent.jpg","m","","","","","right","m","true"
"","null","html-keyboard-response","215","2.0.0","224694","py5b20xboc1","bigger","falcon","Attention span","No","<p>Correct!</p>","null","","","","","","",""
"","null","html-keyboard-response","216","2.0.0","225697","py5b20xboc1","bigger","falcon","Attention span","No","<div style=""font-size:60px;"">+</div>","null","","","","","","",""
"","792","image-keyboard-response","217","2.0.0","226491","py5b20xboc1","bigger","falcon","Attention span","No","stimuli/23-Congruent.jpg","z","","","","","left","z","true"
"","null","html-keyboard-response","218","2.0.0","227393","py5b20xboc1","bigger","falcon","Attention span","No","<p>Correct!</p>","null","","","","","","",""
"","null","html-keyboard-response","219","2.0.0","228396","py5b20xboc1","bigger","falcon","Attention span","No","<div style=""font-size:60px;"">+</div>","null","","","","","","",""
"","464","image-keyboard-response","220","2.0.0","228862","py5b20xboc1","bigger","falcon","Attention span","No","stimuli/35-Congruent.jpg","z","","","","","left","z","true"
"","null","html-keyboard-response","221","2.0.0","229765","py5b20xboc1","bigger","falcon","Attention span","No","<p>Correct!</p>","null","","","","","","",""
"","null","html-keyboard-response","222","2.0.0","230768","py5b20xboc1","bigger","falcon","Attention span","No","<div style=""font-size:60px;"">+</div>","null","","","","","","",""
"","477","image-keyboard-response","223","2.0.0","231247","py5b20xboc1","bigger","falcon","Attention span","No","stimuli/36-Congruent.jpg","z","","","","","left","z","true"
"","null","html-keyboard-response","224","2.0.0","232149","py5b20xboc1","bigger","falcon","Attention span","No","<p>Correct!</p>","null","","","","","","",""
"","null","html-keyboard-response","225","2.0.0","233152","py5b20xboc1","bigger","falcon","Attention span","No","<div style=""font-size:60px;"">+</div>","null","","","","","","",""
"","770","image-keyboard-response","226","2.0.0","233924","py5b20xboc1","bigger","falcon","Attention span","No","stimuli/14-Inongruent.jpg","m","","","","","right","m","true"
"","null","html-keyboard-response","227","2.0.0","234826","py5b20xboc1","bigger","falcon","Attention span","No","<p>Correct!</p>","null","","","","","","",""
"","null","html-keyboard-response","228","2.0.0","235830","py5b20xboc1","bigger","falcon","Attention span","No","<div style=""font-size:60px;"">+</div>","null","","","","","","",""
"","417","image-keyboard-response","229","2.0.0","236249","py5b20xboc1","bigger","falcon","Attention span","No","stimuli/24-Inongruent.jpg","m","","","","","right","m","true"
"","null","html-keyboard-response","230","2.0.0","237151","py5b20xboc1","bigger","falcon","Attention span","No","<p>Correct!</p>","null","","","","","","",""
"","null","html-keyboard-response","231","2.0.0","238154","py5b20xboc1","bigger","falcon","Attention span","No","<div style=""font-size:60px;"">+</div>","null","","","","","","",""
"","390","image-keyboard-response","232","2.0.0","238547","py5b20xboc1","bigger","falcon","Attention span","No","stimuli/34-Inongruent.jpg","m","","","","","right","m","true"
"","null","html-keyboard-response","233","2.0.0","239449","py5b20xboc1","bigger","falcon","Attention span","No","<p>Correct!</p>","null","","","","","","",""
"","null","html-keyboard-response","234","2.0.0","240452","py5b20xboc1","bigger","falcon","Attention span","No","<div style=""font-size:60px;"">+</div>","null","","","","","","",""
"","344","image-keyboard-response","235","2.0.0","240798","py5b20xboc1","bigger","falcon","Attention span","No","stimuli/23-Inongruent.jpg","m","","","","","right","m","true"
"","null","html-keyboard-response","236","2.0.0","241701","py5b20xboc1","bigger","falcon","Attention span","No","<p>Correct!</p>","null","","","","","","",""
"","null","html-keyboard-response","237","2.0.0","242705","py5b20xboc1","bigger","falcon","Attention span","No","<div style=""font-size:60px;"">+</div>","null","","","","","","",""
"","409","image-keyboard-response","238","2.0.0","243115","py5b20xboc1","bigger","falcon","Attention span","No","stimuli/25-Congruent.jpg","z","","","","","left","z","true"
"","null","html-keyboard-response","239","2.0.0","244018","py5b20xboc1","bigger","falcon","Attention span","No","<p>Correct!</p>","null","","","","","","",""
"","null","html-keyboard-response","240","2.0.0","245021","py5b20xboc1","bigger","falcon","Attention span","No","<div style=""font-size:60px;"">+</div>","null","","","","","","",""
"","384","image-keyboard-response","241","2.0.0","245408","py5b20xboc1","bigger","falcon","Attention span","No","stimuli/13-Inongruent.jpg","m","","","","","right","m","true"
"","null","html-keyboard-response","242","2.0.0","246311","py5b20xboc1","bigger","falcon","Attention span","No","<p>Correct!</p>","null","","","","","","",""
"","null","html-keyboard-response","243","2.0.0","247314","py5b20xboc1","bigger","falcon","Attention span","No","<div style=""font-size:60px;"">+</div>","null","","","","","","",""
"","336","image-keyboard-response","244","2.0.0","247652","py5b20xboc1","bigger","falcon","Attention span","No","stimuli/23-Congruent.jpg","z","","","","","left","z","true"
"","null","html-keyboard-response","245","2.0.0","248555","py5b20xboc1","bigger","falcon","Attention span","No","<p>Correct!</p>","null","","","","","","",""
"","null","html-keyboard-response","246","2.0.0","249558","py5b20xboc1","bigger","falcon","Attention span","No","<div style=""font-size:60px;"">+</div>","null","","","","","","",""
"","343","image-keyboard-response","247","2.0.0","249902","py5b20xboc1","bigger","falcon","Attention span","No","stimuli/8-Inongruent.jpg","m","","","","","right","m","true"
"","null","html-keyboard-response","248","2.0.0","250805","py5b20xboc1","bigger","falcon","Attention span","No","<p>Correct!</p>","null","","","","","","",""
"","null","html-keyboard-response","249","2.0.0","251808","py5b20xboc1","bigger","falcon","Attention span","No","<div style=""font-size:60px;"">+</div>","null","","","","","","",""
"","369","image-keyboard-response","250","2.0.0","252179","py5b20xboc1","bigger","falcon","Attention span","No","stimuli/3-Inongruent.jpg","m","","","","","right","m","true"
"","null","html-keyboard-response","251","2.0.0","253082","py5b20xboc1","bigger","falcon","Attention span","No","<p>Correct!</p>","null","","","","","","",""
"","null","html-keyboard-response","252","2.0.0","254084","py5b20xboc1","bigger","falcon","Attention span","No","<div style=""font-size:60px;"">+</div>","null","","","","","","",""
"","378","image-keyboard-response","253","2.0.0","254464","py5b20xboc1","bigger","falcon","Attention span","No","stimuli/19-Congruent.jpg","z","","","","","left","z","true"
"","null","html-keyboard-response","254","2.0.0","255367","py5b20xboc1","bigger","falcon","Attention span","No","<p>Correct!</p>","null","","","","","","",""
"","null","html-keyboard-response","255","2.0.0","256370","py5b20xboc1","bigger","falcon","Attention span","No","<div style=""font-size:60px;"">+</div>","null","","","","","","",""
"","399","image-keyboard-response","256","2.0.0","256770","py5b20xboc1","bigger","falcon","Attention span","No","stimuli/6-Congruent.jpg","z","","","","","left","z","true"
"","null","html-keyboard-response","257","2.0.0","257673","py5b20xboc1","bigger","falcon","Attention span","No","<p>Correct!</p>","null","","","","","","",""
"","null","html-keyboard-response","258","2.0.0","258676","py5b20xboc1","bigger","falcon","Attention span","No","<div style=""font-size:60px;"">+</div>","null","","","","","","",""
"","480","image-keyboard-response","259","2.0.0","259158","py5b20xboc1","bigger","falcon","Attention span","No","stimuli/33-Congruent.jpg","z","","","","","left","z","true"
"","null","html-keyboard-response","260","2.0.0","260060","py5b20xboc1","bigger","falcon","Attention span","No","<p>Correct!</p>","null","","","","","","",""
"","null","html-keyboard-response","261","2.0.0","261063","py5b20xboc1","bigger","falcon","Attention span","No","<div style=""font-size:60px;"">+</div>","null","","","","","","",""
"","480","image-keyboard-response","262","2.0.0","261545","py5b20xboc1","bigger","falcon","Attention span","No","stimuli/10-Congruent.jpg","z","","","","","left","z","true"
"","null","html-keyboard-response","263","2.0.0","262448","py5b20xboc1","bigger","falcon","Attention span","No","<p>Correct!</p>","null","","","","","","",""
"","null","html-keyboard-response","264","2.0.0","263450","py5b20xboc1","bigger","falcon","Attention span","No","<div style=""font-size:60px;"">+</div>","null","","","","","","",""
"","372","image-keyboard-response","265","2.0.0","263824","py5b20xboc1","bigger","falcon","Attention span","No","stimuli/22-Inongruent.jpg","m","","","","","right","m","true"
"","null","html-keyboard-response","266","2.0.0","264727","py5b20xboc1","bigger","falcon","Attention span","No","<p>Correct!</p>","null","","","","","","",""
"","null","html-keyboard-response","267","2.0.0","265730","py5b20xboc1","bigger","falcon","Attention span","No","<div style=""font-size:60px;"">+</div>","null","","","","","","",""
"","429","image-keyboard-response","268","2.0.0","266160","py5b20xboc1","bigger","falcon","Attention span","No","stimuli/29-Inongruent.jpg","m","","","","","right","m","true"
"","null","html-keyboard-response","269","2.0.0","267063","py5b20xboc1","bigger","falcon","Attention span","No","<p>Correct!</p>","null","","","","","","",""
"","null","html-keyboard-response","270","2.0.0","268066","py5b20xboc1","bigger","falcon","Attention span","No","<div style=""font-size:60px;"">+</div>","null","","","","","","",""
"","384","image-keyboard-response","271","2.0.0","268452","py5b20xboc1","bigger","falcon","Attention span","No","stimuli/7-Congruent.jpg","z","","","","","left","z","true"
"","null","html-keyboard-response","272","2.0.0","269355","py5b20xboc1","bigger","falcon","Attention span","No","<p>Correct!</p>","null","","","","","","",""
"","null","html-keyboard-response","273","2.0.0","270357","py5b20xboc1","bigger","falcon","Attention span","No","<div style=""font-size:60px;"">+</div>","null","","","","","","",""
"","410","image-keyboard-response","274","2.0.0","270770","py5b20xboc1","bigger","falcon","Attention span","No","stimuli/10-Inongruent.jpg","m","","","","","right","m","true"
"","null","html-keyboard-response","275","2.0.0","271671","py5b20xboc1","bigger","falcon","Attention span","No","<p>Correct!</p>","null","","","","","","",""
"","null","html-keyboard-response","276","2.0.0","272673","py5b20xboc1","bigger","falcon","Attention span","No","<div style=""font-size:60px;"">+</div>","null","","","","","","",""
"","396","image-keyboard-response","277","2.0.0","273071","py5b20xboc1","bigger","falcon","Attention span","No","stimuli/33-Inongruent.jpg","m","","","","","right","m","true"
"","null","html-keyboard-response","278","2.0.0","273974","py5b20xboc1","bigger","falcon","Attention span","No","<p>Correct!</p>","null","","","","","","",""
"","null","html-keyboard-response","279","2.0.0","274977","py5b20xboc1","bigger","falcon","Attention span","No","<div style=""font-size:60px;"">+</div>","null","","","","","","",""
"","380","image-keyboard-response","280","2.0.0","275359","py5b20xboc1","bigger","falcon","Attention span","No","stimuli/22-Inongruent.jpg","m","","","","","right","m","true"
"","null","html-keyboard-response","281","2.0.0","276261","py5b20xboc1","bigger","falcon","Attention span","No","<p>Correct!</p>","null","","","","","","",""
"","null","html-keyboard-response","282","2.0.0","277264","py5b20xboc1","bigger","falcon","Attention span","No","<div style=""font-size:60px;"">+</div>","null","","","","","","",""
"","378","image-keyboard-response","283","2.0.0","277644","py5b20xboc1","bigger","falcon","Attention span","No","stimuli/8-Congruent.jpg","z","","","","","left","z","true"
"","null","html-keyboard-response","284","2.0.0","278547","py5b20xboc1","bigger","falcon","Attention span","No","<p>Correct!</p>","null","","","","","","",""
"","null","html-keyboard-response","285","2.0.0","279549","py5b20xboc1","bigger","falcon","Attention span","No","<div style=""font-size:60px;"">+</div>","null","","","","","","",""
"","420","image-keyboard-response","286","2.0.0","279972","py5b20xboc1","bigger","falcon","Attention span","No","stimuli/14-Congruent.jpg","z","","","","","left","z","true"
"","null","html-keyboard-response","287","2.0.0","280874","py5b20xboc1","bigger","falcon","Attention span","No","<p>Correct!</p>","null","","","","","","",""
"","null","html-keyboard-response","288","2.0.0","281877","py5b20xboc1","bigger","falcon","Attention span","No","<div style=""font-size:60px;"">+</div>","null","","","","","","",""
"","386","image-keyboard-response","289","2.0.0","282265","py5b20xboc1","bigger","falcon","Attention span","No","stimuli/9-Inongruent.jpg","m","","","","","right","m","true"
"","null","html-keyboard-response","290","2.0.0","283168","py5b20xboc1","bigger","falcon","Attention span","No","<p>Correct!</p>","null","","","","","","",""
"","null","html-keyboard-response","291","2.0.0","284171","py5b20xboc1","bigger","falcon","Attention span","No","<div style=""font-size:60px;"">+</div>","null","","","","","","",""
"","764","image-keyboard-response","292","2.0.0","284937","py5b20xboc1","bigger","falcon","Attention span","No","stimuli/21-Inongruent.jpg","m","","","","","right","m","true"
"","null","html-keyboard-response","293","2.0.0","285839","py5b20xboc1","bigger","falcon","Attention span","No","<p>Correct!</p>","null","","","","","","",""
"","null","html-keyboard-response","294","2.0.0","286843","py5b20xboc1","bigger","falcon","Attention span","No","<div style=""font-size:60px;"">+</div>","null","","","","","","",""
"","442","image-keyboard-response","295","2.0.0","287286","py5b20xboc1","bigger","falcon","Attention span","No","stimuli/26-Inongruent.jpg","m","","","","","right","m","true"
"","null","html-keyboard-response","296","2.0.0","288189","py5b20xboc1","bigger","falcon","Attention span","No","<p>Correct!</p>","null","","","","","","",""
"","null","html-keyboard-response","297","2.0.0","289192","py5b20xboc1","bigger","falcon","Attention span","No","<div style=""font-size:60px;"">+</div>","null","","","","","","",""
"","397","image-keyboard-response","298","2.0.0","289591","py5b20xboc1","bigger","falcon","Attention span","No","stimuli/18-Congruent.jpg","z","","","","","left","z","true"
"","null","html-keyboard-response","299","2.0.0","290494","py5b20xboc1","bigger","falcon","Attention span","No","<p>Correct!</p>","null","","","","","","",""
"","null","html-keyboard-response","300","2.0.0","291497","py5b20xboc1","bigger","falcon","Attention span","No","<div style=""font-size:60px;"">+</div>","null","","","","","","",""
"","443","image-keyboard-response","301","2.0.0","291941","py5b20xboc1","bigger","falcon","Attention span","No","stimuli/16-Inongruent.jpg","m","","","","","right","m","true"
"","null","html-keyboard-response","302","2.0.0","292844","py5b20xboc1","bigger","falcon","Attention span","No","<p>Correct!</p>","null","","","","","","",""
"","null","html-keyboard-response","303","2.0.0","293847","py5b20xboc1","bigger","falcon","Attention span","No","<div style=""font-size:60px;"">+</div>","null","","","","","","",""
"","391","image-keyboard-response","304","2.0.0","294240","py5b20xboc1","bigger","falcon","Attention span","No","stimuli/31-Congruent.jpg","z","","","","","left","z","true"
"","null","html-keyboard-response","305","2.0.0","295143","py5b20xboc1","bigger","falcon","Attention span","No","<p>Correct!</p>","null","","","","","","",""
"","null","html-keyboard-response","306","2.0.0","296146","py5b20xboc1","bigger","falcon","Attention span","No","<div style=""font-size:60px;"">+</div>","null","","","","","","",""
"","909","image-keyboard-response","307","2.0.0","297056","py5b20xboc1","bigger","falcon","Attention span","No","stimuli/22-Congruent.jpg","z","","","","","left","z","true"
"","null","html-keyboard-response","308","2.0.0","297959","py5b20xboc1","bigger","falcon","Attention span","No","<p>Correct!</p>","null","","","","","","",""
"","null","html-keyboard-response","309","2.0.0","298962","py5b20xboc1","bigger","falcon","Attention span","No","<div style=""font-size:60px;"">+</div>","null","","","","","","",""
"","448","image-keyboard-response","310","2.0.0","299412","py5b20xboc1","bigger","falcon","Attention span","No","stimuli/14-Inongruent.jpg","m","","","","","right","m","true"
"","null","html-keyboard-response","311","2.0.0","300314","py5b20xboc1","bigger","falcon","Attention span","No","<p>Correct!</p>","null","","","","","","",""
"","null","html-keyboard-response","312","2.0.0","301317","py5b20xboc1","bigger","falcon","Attention span","No","<div style=""font-size:60px;"">+</div>","null","","","","","","",""
"","778","image-keyboard-response","313","2.0.0","302097","py5b20xboc1","bigger","falcon","Attention span","No","stimuli/25-Congruent.jpg","z","","","","","left","z","true"
"","null","html-keyboard-response","314","2.0.0","302999","py5b20xboc1","bigger","falcon","Attention span","No","<p>Correct!</p>","null","","","","","","",""
"","null","html-keyboard-response","315","2.0.0","304002","py5b20xboc1","bigger","falcon","Attention span","No","<div style=""font-size:60px;"">+</div>","null","","","","","","",""
"","817","image-keyboard-response","316","2.0.0","304821","py5b20xboc1","bigger","falcon","Attention span","No","stimuli/9-Congruent.jpg","z","","","","","left","z","true"
"","null","html-keyboard-response","317","2.0.0","305724","py5b20xboc1","bigger","falcon","Attention span","No","<p>Correct!</p>","null","","","","","","",""
"","null","html-keyboard-response","318","2.0.0","306727","py5b20xboc1","bigger","falcon","Attention span","No","<div style=""font-size:60px;"">+</div>","null","","","","","","",""
"","631","image-keyboard-response","319","2.0.0","307360","py5b20xboc1","bigger","falcon","Attention span","No","stimuli/26-Congruent.jpg","z","","","","","left","z","true"
"","null","html-keyboard-response","320","2.0.0","308263","py5b20xboc1","bigger","falcon","Attention span","No","<p>Correct!</p>","null","","","","","","",""
"","null","html-keyboard-response","321","2.0.0","309266","py5b20xboc1","bigger","falcon","Attention span","No","<div style=""font-size:60px;"">+</div>","null","","","","","","",""
"","515","image-keyboard-response","322","2.0.0","309783","py5b20xboc1","bigger","falcon","Attention span","No","stimuli/4-Inongruent.jpg","m","","","","","right","m","true"
"","null","html-keyboard-response","323","2.0.0","310685","py5b20xboc1","bigger","falcon","Attention span","No","<p>Correct!</p>","null","","","","","","",""
"","null","html-keyboard-response","324","2.0.0","311688","py5b20xboc1","bigger","falcon","Attention span","No","<div style=""font-size:60px;"">+</div>","null","","","","","","",""
"","476","image-keyboard-response","325","2.0.0","312166","py5b20xboc1","bigger","falcon","Attention span","No","stimuli/20-Inongruent.jpg","m","","","","","right","m","true"
"","null","html-keyboard-response","326","2.0.0","313069","py5b20xboc1","bigger","falcon","Attention span","No","<p>Correct!</p>","null","","","","","","",""
"","null","html-keyboard-response","327","2.0.0","314071","py5b20xboc1","bigger","falcon","Attention span","No","<div style=""font-size:60px;"">+</div>","null","","","","","","",""
"","422","image-keyboard-response","328","2.0.0","314495","py5b20xboc1","bigger","falcon","Attention span","No","stimuli/9-Congruent.jpg","z","","","","","left","z","true"
"","null","html-keyboard-response","329","2.0.0","315398","py5b20xboc1","bigger","falcon","Attention span","No","<p>Correct!</p>","null","","","","","","",""
"","null","html-keyboard-response","330","2.0.0","316400","py5b20xboc1","bigger","falcon","Attention span","No","<div style=""font-size:60px;"">+</div>","null","","","","","","",""
"","397","image-keyboard-response","331","2.0.0","316800","py5b20xboc1","bigger","falcon","Attention span","No","stimuli/5-Inongruent.jpg","m","","","","","right","m","true"
"","null","html-keyboard-response","332","2.0.0","317703","py5b20xboc1","bigger","falcon","Attention span","No","<p>Correct!</p>","null","","","","","","",""
"","null","html-keyboard-response","333","2.0.0","318706","py5b20xboc1","bigger","falcon","Attention span","No","<div style=""font-size:60px;"">+</div>","null","","","","","","",""
"","458","image-keyboard-response","334","2.0.0","319167","py5b20xboc1","bigger","falcon","Attention span","No","stimuli/14-Congruent.jpg","z","","","","","left","z","true"
"","null","html-keyboard-response","335","2.0.0","320070","py5b20xboc1","bigger","falcon","Attention span","No","<p>Correct!</p>","null","","","","","","",""
"","null","html-keyboard-response","336","2.0.0","321073","py5b20xboc1","bigger","falcon","Attention span","No","<div style=""font-size:60px;"">+</div>","null","","","","","","",""
"","479","image-keyboard-response","337","2.0.0","321554","py5b20xboc1","bigger","falcon","Attention span","No","stimuli/29-Congruent.jpg","z","","","","","left","z","true"
"","null","html-keyboard-response","338","2.0.0","322457","py5b20xboc1","bigger","falcon","Attention span","No","<p>Correct!</p>","null","","","","","","",""
"","null","html-keyboard-response","339","2.0.0","323459","py5b20xboc1","bigger","falcon","Attention span","No","<div style=""font-size:60px;"">+</div>","null","","","","","","",""
"","511","image-keyboard-response","340","2.0.0","323973","py5b20xboc1","bigger","falcon","Attention span","No","stimuli/15-Congruent.jpg","z","","","","","left","z","true"
"","null","html-keyboard-response","341","2.0.0","324875","py5b20xboc1","bigger","falcon","Attention span","No","<p>Correct!</p>","null","","","","","","",""
"","null","html-keyboard-response","342","2.0.0","325879","py5b20xboc1","bigger","falcon","Attention span","No","<div style=""font-size:60px;"">+</div>","null","","","","","","",""
"","381","image-keyboard-response","343","2.0.0","326261","py5b20xboc1","bigger","falcon","Attention span","No","stimuli/11-Inongruent.jpg","m","","","","","right","m","true"
"","null","html-keyboard-response","344","2.0.0","327164","py5b20xboc1","bigger","falcon","Attention span","No","<p>Correct!</p>","null","","","","","","",""
"","null","html-keyboard-response","345","2.0.0","328167","py5b20xboc1","bigger","falcon","Attention span","No","<div style=""font-size:60px;"">+</div>","null","","","","","","",""
"","402","image-keyboard-response","346","2.0.0","328571","py5b20xboc1","bigger","falcon","Attention span","No","stimuli/20-Inongruent.jpg","m","","","","","right","m","true"
"","null","html-keyboard-response","347","2.0.0","329473","py5b20xboc1","bigger","falcon","Attention span","No","<p>Correct!</p>","null","","","","","","",""
"","null","html-keyboard-response","348","2.0.0","330477","py5b20xboc1","bigger","falcon","Attention span","No","<div style=""font-size:60px;"">+</div>","null","","","","","","",""
"","528","image-keyboard-response","349","2.0.0","331007","py5b20xboc1","bigger","falcon","Attention span","No","stimuli/17-Congruent.jpg","z","","","","","left","z","true"
"","null","html-keyboard-response","350","2.0.0","331910","py5b20xboc1","bigger","falcon","Attention span","No","<p>Correct!</p>","null","","","","","","",""
"","null","html-keyboard-response","351","2.0.0","332912","py5b20xboc1","bigger","falcon","Attention span","No","<div style=""font-size:60px;"">+</div>","null","","","","","","",""
"","425","image-keyboard-response","352","2.0.0","333339","py5b20xboc1","bigger","falcon","Attention span","No","stimuli/10-Congruent.jpg","z","","","","","left","z","true"
"","null","html-keyboard-response","353","2.0.0","334243","py5b20xboc1","bigger","falcon","Attention span","No","<p>Correct!</p>","null","","","","","","",""
"","null","html-keyboard-response","354","2.0.0","335246","py5b20xboc1","bigger","falcon","Attention span","No","<div style=""font-size:60px;"">+</div>","null","","","","","","",""
"","390","image-keyboard-response","355","2.0.0","335638","py5b20xboc1","bigger","falcon","Attention span","No","stimuli/3-Congruent.jpg","z","","","","","left","z","true"
"","null","html-keyboard-response","356","2.0.0","336541","py5b20xboc1","bigger","falcon","Attention span","No","<p>Correct!</p>","null","","","","","","",""
"","null","html-keyboard-response","357","2.0.0","337543","py5b20xboc1","bigger","falcon","Attention span","No","<div style=""font-size:60px;"">+</div>","null","","","","","","",""
"","342","image-keyboard-response","358","2.0.0","337887","py5b20xboc1","bigger","falcon","Attention span","No","stimuli/1-Congruent.jpg","z","","","","","left","z","true"
"","null","html-keyboard-response","359","2.0.0","338790","py5b20xboc1","bigger","falcon","Attention span","No","<p>Correct!</p>","null","","","","","","",""
"","null","html-keyboard-response","360","2.0.0","339793","py5b20xboc1","bigger","falcon","Attention span","No","<div style=""font-size:60px;"">+</div>","null","","","","","","",""
"","780","image-keyboard-response","361","2.0.0","340575","py5b20xboc1","bigger","falcon","Attention span","No","stimuli/19-Congruent.jpg","z","","","","","left","z","true"
"","null","html-keyboard-response","362","2.0.0","341478","py5b20xboc1","bigger","falcon","Attention span","No","<p>Correct!</p>","null","","","","","","",""
"","null","html-keyboard-response","363","2.0.0","342481","py5b20xboc1","bigger","falcon","Attention span","No","<div style=""font-size:60px;"">+</div>","null","","","","","","",""
"","462","image-keyboard-response","364","2.0.0","342945","py5b20xboc1","bigger","falcon","Attention span","No","stimuli/34-Congruent.jpg","z","","","","","left","z","true"
"","null","html-keyboard-response","365","2.0.0","343848","py5b20xboc1","bigger","falcon","Attention span","No","<p>Correct!</p>","null","","","","","","",""
"","null","html-keyboard-response","366","2.0.0","344851","py5b20xboc1","bigger","falcon","Attention span","No","<div style=""font-size:60px;"">+</div>","null","","","","","","",""
"","479","image-keyboard-response","367","2.0.0","345332","py5b20xboc1","bigger","falcon","Attention span","No","stimuli/35-Congruent.jpg","z","","","","","left","z","true"
"","null","html-keyboard-response","368","2.0.0","346234","py5b20xboc1","bigger","falcon","Attention span","No","<p>Correct!</p>","null","","","","","","",""
"","null","html-keyboard-response","369","2.0.0","347237","py5b20xboc1","bigger","falcon","Attention span","No","<div style=""font-size:60px;"">+</div>","null","","","","","","",""
"","706","image-keyboard-response","370","2.0.0","347945","py5b20xboc1","bigger","falcon","Attention span","No","stimuli/29-Congruent.jpg","z","","","","","left","z","true"
"","null","html-keyboard-response","371","2.0.0","348848","py5b20xboc1","bigger","falcon","Attention span","No","<p>Correct!</p>","null","","","","","","",""
"","null","html-keyboard-response","372","2.0.0","349851","py5b20xboc1","bigger","falcon","Attention span","No","<div style=""font-size:60px;"">+</div>","null","","","","","","",""
"","516","image-keyboard-response","373","2.0.0","350369","py5b20xboc1","bigger","falcon","Attention span","No","stimuli/26-Congruent.jpg","z","","","","","left","z","true"
"","null","html-keyboard-response","374","2.0.0","351272","py5b20xboc1","bigger","falcon","Attention span","No","<p>Correct!</p>","null","","","","","","",""
"","null","html-keyboard-response","375","2.0.0","352274","py5b20xboc1","bigger","falcon","Attention span","No","<div style=""font-size:60px;"">+</div>","null","","","","","","",""
"","413","image-keyboard-response","376","2.0.0","352690","py5b20xboc1","bigger","falcon","Attention span","No","stimuli/32-Inongruent.jpg","m","","","","","right","m","true"
"","null","html-keyboard-response","377","2.0.0","353593","py5b20xboc1","bigger","falcon","Attention span","No","<p>Correct!</p>","null","","","","","","",""
"","null","html-keyboard-response","378","2.0.0","354595","py5b20xboc1","bigger","falcon","Attention span","No","<div style=""font-size:60px;"">+</div>","null","","","","","","",""
"","400","image-keyboard-response","379","2.0.0","354998","py5b20xboc1","bigger","falcon","Attention span","No","stimuli/1-Congruent.jpg","z","","","","","left","z","true"
"","null","html-keyboard-response","380","2.0.0","355901","py5b20xboc1","bigger","falcon","Attention span","No","<p>Correct!</p>","null","","","","","","",""
"","null","html-keyboard-response","381","2.0.0","356905","py5b20xboc1","bigger","falcon","Attention span","No","<div style=""font-size:60px;"">+</div>","null","","","","","","",""
"","460","image-keyboard-response","382","2.0.0","357366","py5b20xboc1","bigger","falcon","Attention span","No","stimuli/32-Congruent.jpg","z","","","","","left","z","true"
"","null","html-keyboard-response","383","2.0.0","358270","py5b20xboc1","bigger","falcon","Attention span","No","<p>Correct!</p>","null","","","","","","",""
"","null","html-keyboard-response","384","2.0.0","359272","py5b20xboc1","bigger","falcon","Attention span","No","<div style=""font-size:60px;"">+</div>","null","","","","","","",""
"","438","image-keyboard-response","385","2.0.0","359713","py5b20xboc1","bigger","falcon","Attention span","No","stimuli/2-Congruent.jpg","z","","","","","left","z","true"
"","null","html-keyboard-response","386","2.0.0","360616","py5b20xboc1","bigger","falcon","Attention span","No","<p>Correct!</p>","null","","","","","","",""
"","null","html-keyboard-response","387","2.0.0","361619","py5b20xboc1","bigger","falcon","Attention span","No","<div style=""font-size:60px;"">+</div>","null","","","","","","",""
"","523","image-keyboard-response","388","2.0.0","362144","py5b20xboc1","bigger","falcon","Attention span","No","stimuli/1-Inongruent.jpg","m","","","","","right","m","true"
"","null","html-keyboard-response","389","2.0.0","363046","py5b20xboc1","bigger","falcon","Attention span","No","<p>Correct!</p>","null","","","","","","",""
"","null","html-keyboard-response","390","2.0.0","364048","py5b20xboc1","bigger","falcon","Attention span","No","<div style=""font-size:60px;"">+</div>","null","","","","","","",""
"","369","image-keyboard-response","391","2.0.0","364419","py5b20xboc1","bigger","falcon","Attention span","No","stimuli/5-Congruent.jpg","z","","","","","left","z","true"
"","null","html-keyboard-response","392","2.0.0","365321","py5b20xboc1","bigger","falcon","Attention span","No","<p>Correct!</p>","null","","","","","","",""
"","null","html-keyboard-response","393","2.0.0","366323","py5b20xboc1","bigger","falcon","Attention span","No","<div style=""font-size:60px;"">+</div>","null","","","","","","",""
"","401","image-keyboard-response","394","2.0.0","366726","py5b20xboc1","bigger","falcon","Attention span","No","stimuli/35-Inongruent.jpg","m","","","","","right","m","true"
"","null","html-keyboard-response","395","2.0.0","367629","py5b20xboc1","bigger","falcon","Attention span","No","<p>Correct!</p>","null","","","","","","",""
"","null","html-keyboard-response","396","2.0.0","368632","py5b20xboc1","bigger","falcon","Attention span","No","<div style=""font-size:60px;"">+</div>","null","","","","","","",""
"","420","image-keyboard-response","397","2.0.0","369055","py5b20xboc1","bigger","falcon","Attention span","No","stimuli/35-Inongruent.jpg","m","","","","","right","m","true"
"","null","html-keyboard-response","398","2.0.0","369957","py5b20xboc1","bigger","falcon","Attention span","No","<p>Correct!</p>","null","","","","","","",""
"","null","html-keyboard-response","399","2.0.0","370960","py5b20xboc1","bigger","falcon","Attention span","No","<div style=""font-size:60px;"">+</div>","null","","","","","","",""
"","450","image-keyboard-response","400","2.0.0","371413","py5b20xboc1","bigger","falcon","Attention span","No","stimuli/17-Congruent.jpg","z","","","","","left","z","true"
"","null","html-keyboard-response","401","2.0.0","372315","py5b20xboc1","bigger","falcon","Attention span","No","<p>Correct!</p>","null","","","","","","",""
"","null","html-keyboard-response","402","2.0.0","373318","py5b20xboc1","bigger","falcon","Attention span","No","<div style=""font-size:60px;"">+</div>","null","","","","","","",""
"","356","image-keyboard-response","403","2.0.0","373677","py5b20xboc1","bigger","falcon","Attention span","No","stimuli/23-Inongruent.jpg","m","","","","","right","m","true"
"","null","html-keyboard-response","404","2.0.0","374578","py5b20xboc1","bigger","falcon","Attention span","No","<p>Correct!</p>","null","","","","","","",""
"","null","html-keyboard-response","405","2.0.0","375580","py5b20xboc1","bigger","falcon","Attention span","No","<div style=""font-size:60px;"">+</div>","null","","","","","","",""
"","362","image-keyboard-response","406","2.0.0","375945","py5b20xboc1","bigger","falcon","Attention span","No","stimuli/12-Inongruent.jpg","m","","","","","right","m","true"
"","null","html-keyboard-response","407","2.0.0","376847","py5b20xboc1","bigger","falcon","Attention span","No","<p>Correct!</p>","null","","","","","","",""
"","null","html-keyboard-response","408","2.0.0","377851","py5b20xboc1","bigger","falcon","Attention span","No","<div style=""font-size:60px;"">+</div>","null","","","","","","",""
"","425","image-keyboard-response","409","2.0.0","378278","py5b20xboc1","bigger","falcon","Attention span","No","stimuli/6-Inongruent.jpg","m","","","","","right","m","true"
"","null","html-keyboard-response","410","2.0.0","379182","py5b20xboc1","bigger","falcon","Attention span","No","<p>Correct!</p>","null","","","","","","",""
"","null","html-keyboard-response","411","2.0.0","380185","py5b20xboc1","bigger","falcon","Attention span","No","<div style=""font-size:60px;"">+</div>","null","","","","","","",""
"","430","image-keyboard-response","412","2.0.0","380617","py5b20xboc1","bigger","falcon","Attention span","No","stimuli/18-Inongruent.jpg","m","","","","","right","m","true"
"","null","html-keyboard-response","413","2.0.0","381519","py5b20xboc1","bigger","falcon","Attention span","No","<p>Correct!</p>","null","","","","","","",""
"","null","html-keyboard-response","414","2.0.0","382522","py5b20xboc1","bigger","falcon","Attention span","No","<div style=""font-size:60px;"">+</div>","null","","","","","","",""
"","951","image-keyboard-response","415","2.0.0","383475","py5b20xboc1","bigger","falcon","Attention span","No","stimuli/20-Congruent.jpg","z","","","","","left","z","true"
"","null","html-keyboard-response","416","2.0.0","384378","py5b20xboc1","bigger","falcon","Attention span","No","<p>Correct!</p>","null","","","","","","",""
"","null","html-keyboard-response","417","2.0.0","385381","py5b20xboc1","bigger","falcon","Attention span","No","<div style=""font-size:60px;"">+</div>","null","","","","","","",""
"","464","image-keyboard-response","418","2.0.0","385846","py5b20xboc1","bigger","falcon","Attention span","No","stimuli/22-Congruent.jpg","z","","","","","left","z","true"
"","null","html-keyboard-response","419","2.0.0","386750","py5b20xboc1","bigger","falcon","Attention span","No","<p>Correct!</p>","null","","","","","","",""
"","null","html-keyboard-response","420","2.0.0","387753","py5b20xboc1","bigger","falcon","Attention span","No","<div style=""font-size:60px;"">+</div>","null","","","","","","",""
"","537","image-keyboard-response","421","2.0.0","388291","py5b20xboc1","bigger","falcon","Attention span","No","stimuli/11-Inongruent.jpg","m","","","","","right","m","true"
"","null","html-keyboard-response","422","2.0.0","389193","py5b20xboc1","bigger","falcon","Attention span","No","<p>Correct!</p>","null","","","","","","",""
"","null","html-keyboard-response","423","2.0.0","390196","py5b20xboc1","bigger","falcon","Attention span","No","<div style=""font-size:60px;"">+</div>","null","","","","","","",""
"","401","image-keyboard-response","424","2.0.0","390599","py5b20xboc1","bigger","falcon","Attention span","No","stimuli/7-Inongruent.jpg","m","","","","","right","m","true"
"","null","html-keyboard-response","425","2.0.0","391502","py5b20xboc1","bigger","falcon","Attention span","No","<p>Correct!</p>","null","","","","","","",""
"","null","html-keyboard-response","426","2.0.0","392505","py5b20xboc1","bigger","falcon","Attention span","No","<div style=""font-size:60px;"">+</div>","null","","","","","","",""
"","492","image-keyboard-response","427","2.0.0","392999","py5b20xboc1","bigger","falcon","Attention span","No","stimuli/17-Inongruent.jpg","m","","","","","right","m","true"
"","null","html-keyboard-response","428","2.0.0","393901","py5b20xboc1","bigger","falcon","Attention span","No","<p>Correct!</p>","null","","","","","","",""
"","null","html-keyboard-response","429","2.0.0","394904","py5b20xboc1","bigger","falcon","Attention span","No","<div style=""font-size:60px;"">+</div>","null","","","","","","",""
"","389","image-keyboard-response","430","2.0.0","395294","py5b20xboc1","bigger","falcon","Attention span","No","stimuli/28-Inongruent.jpg","m","","","","","right","m","true"
"","null","html-keyboard-response","431","2.0.0","396197","py5b20xboc1","bigger","falcon","Attention span","No","<p>Correct!</p>","null","","","","","","",""
"","null","html-keyboard-response","432","2.0.0","397201","py5b20xboc1","bigger","falcon","Attention span","No","<div style=""font-size:60px;"">+</div>","null","","","","","","",""
"","425","image-keyboard-response","433","2.0.0","397627","py5b20xboc1","bigger","falcon","Attention span","No","stimuli/31-Inongruent.jpg","m","","","","","right","m","true"
"","null","html-keyboard-response","434","2.0.0","398530","py5b20xboc1","bigger","falcon","Attention span","No","<p>Correct!</p>","null","","","","","","",""
"","null","html-keyboard-response","435","2.0.0","399533","py5b20xboc1","bigger","falcon","Attention span","No","<div style=""font-size:60px;"">+</div>","null","","","","","","",""
"","532","image-keyboard-response","436","2.0.0","400067","py5b20xboc1","bigger","falcon","Attention span","No","stimuli/4-Congruent.jpg","z","","","","","left","z","true"
"","null","html-keyboard-response","437","2.0.0","400970","py5b20xboc1","bigger","falcon","Attention span","No","<p>Correct!</p>","null","","","","","","",""
"","1553","html-keyboard-response","438","2.0.0","402525","py5b20xboc1","bigger","falcon","Attention span","No","<p>You have completed the experiment!</p>
              <p>Your accuracy was: 100%.</p>
              <p>Thank you for participating.</p>
              <p>Press any key to continue.</p>"," ","","","","","","",""
"","8272","survey-text","439","2.0.0","410801","py5b20xboc1","bigger","falcon","Attention span","No","","{""participant_thoughts"":""Attention span""}","","","","","","",""
"","6282","survey-text","440","2.0.0","417086","py5b20xboc1","bigger","falcon","Attention span","No","","{""participant_difficulties"":""No""}","","","","","","",""
"","1286","html-keyboard-response","441","2.0.0","418373","py5b20xboc1","bigger","falcon","Attention span","No","<p>The purpose of this experiment is to determine if the real world size of a familiar object is automatically processed when viewed.</p><p>Thank you for participating!</p>"," ","","","","","","",""
